,ax,ay,az
601,5.0108695,-2.4212375,8.015656
602,5.0012984,-2.521736,7.986943
603,5.0132627,-2.5002005,8.003693
604,5.0132627,-2.5289145,7.9534435
605,4.9677987,-2.5097718,7.960622
606,5.020441,-2.4619155,7.9103727
607,4.970192,-2.4068804,7.931908
608,4.9438705,-2.385345,7.931908
609,4.9725847,-2.387738,7.9510508
610,4.922335,-2.3901308,7.9295154
611,4.989334,-2.3491535,7.919944
612,4.99412,-2.3635106,7.9390864
613,5.0084767,-2.385345,8.010871
614,5.0563335,-2.3949163,8.030014
615,5.063512,-2.44038,7.9534435
616,5.0395837,-2.426023,7.958229
617,4.979763,-2.3973093,8.0013
618,4.9606204,-2.387738,7.998907
619,4.9486566,-2.3802602,8.0563345
620,4.9749775,-2.3515465,7.934301
621,4.955835,-2.3347967,8.030014
622,4.9989057,-2.3491535,8.013264
623,4.989334,-2.3515465,8.006085
624,4.99412,-2.344368,7.9965143
625,5.0132627,-2.4212375,8.013264
626,5.0156555,-2.3925235,7.9965143
627,5.0515475,-2.414059,7.98455
628,5.020441,-2.426023,7.98455
629,5.046762,-2.4499512,7.98455
630,5.0515475,-2.4475584,7.98455
631,5.0180483,-2.4332016,7.9534435
632,4.979763,-2.4068804,8.006085
633,5.006084,-2.3802602,7.9965143
634,4.996513,-2.4164517,7.998907
635,5.003691,-2.4499512,7.970193
636,4.9845486,-2.3778675,7.9941216
637,5.044369,-2.4571297,8.008478
638,4.9677987,-2.4427729,8.0252285
639,4.9869413,-2.4116662,7.9893355
640,5.0156555,-2.437987,7.903194
641,4.965406,-2.426023,7.9773717
642,5.030012,-2.3901308,8.020442
643,4.9773703,-2.3901308,7.9654074
644,5.003691,-2.4116662,7.943872
645,5.0395837,-2.414059,7.9773717
646,5.0276194,-2.3949163,8.018049
647,5.0515475,-2.4212375,7.9390864
648,5.0515475,-2.4451656,8.0013
649,5.0108695,-2.4284158,7.9893355
650,5.0754757,-2.4762723,7.958229
651,5.0395837,-2.4714868,7.9390864
652,5.0419765,-2.4044876,7.9486575
653,5.077869,-2.4523442,7.9893355
654,5.0419765,-2.4044876,8.013264
655,5.0563335,-2.4451656,8.027621
656,5.0682974,-2.495415,7.9630146
657,5.0252266,-2.4427729,8.0252285
658,5.0395837,-2.4619155,7.9390864
659,4.9989057,-2.44038,7.9797645
660,4.9989057,-2.4523442,7.9366937
661,4.965406,-2.4188447,7.9678
662,4.9486566,-2.4427729,7.9797645
663,4.963013,-2.4212375,8.044371
664,4.99412,-2.426023,8.030014
665,4.982156,-2.4020948,8.049156
666,5.0132627,-2.4044876,8.010871
667,5.006084,-2.3973093,7.9917283
668,4.9606204,-2.414059,8.032407
669,4.9749775,-2.4020948,7.972586
670,4.915157,-2.3659034,7.9678
671,4.9199424,-2.4332016,7.9678
672,4.9319067,-2.4116662,7.9917283
673,4.970192,-2.3949163,7.9462647
674,4.970192,-2.4044876,7.9917283
675,5.0108695,-2.437987,8.039585
676,4.996513,-2.4523442,7.9941216
677,4.970192,-2.4738796,7.9558363
678,4.979763,-2.4595225,8.041978
679,4.955835,-2.478665,7.9462647
680,4.9438705,-2.4092734,7.9893355
681,5.0156555,-2.426023,8.0013
682,5.0180483,-2.4619155,7.982157
683,5.0156555,-2.4595225,7.98455
684,5.020441,-2.466701,7.970193
685,4.9917274,-2.454737,7.9917283
686,4.9749775,-2.437987,8.010871
687,5.0108695,-2.4762723,7.98455
688,5.032405,-2.4643083,7.970193
689,4.989334,-2.4762723,7.9941216
690,4.996513,-2.4284158,7.9510508
691,4.9989057,-2.4619155,7.9654074
692,5.0539403,-2.3802602,8.006085
693,5.0012984,-2.4044876,7.9941216
694,5.044369,-2.4619155,7.9678
695,5.0659046,-2.4427729,7.970193
696,5.0252266,-2.466701,7.982157
697,5.0012984,-2.4595225,7.9534435
698,4.9869413,-2.4619155,7.982157
699,4.9869413,-2.4092734,7.9486575
700,4.941478,-2.44038,7.9965143
701,4.99412,-2.385345,8.013264
702,5.020441,-2.4188447,7.9630146
703,5.0587263,-2.3973093,7.943872
704,5.037191,-2.4355943,7.98455
705,4.982156,-2.44038,8.0013
706,5.0084767,-2.4308088,7.998907
707,5.0180483,-2.4355943,8.013264
708,4.9486566,-2.3925235,7.9893355
709,4.9725847,-2.4212375,8.013264
710,4.955835,-2.4523442,7.986943
711,4.99412,-2.4332016,7.960622
712,5.003691,-2.4020948,8.003693
713,4.989334,-2.414059,8.049156
714,5.006084,-2.4332016,8.013264
715,4.953442,-2.3901308,8.010871
716,4.9749775,-2.4523442,7.970193
717,4.9606204,-2.4475584,8.015656
718,4.982156,-2.4284158,7.9534435
719,4.9749775,-2.3659034,7.974979
720,4.9773703,-2.3659034,7.972586
721,4.9438705,-2.4188447,7.9678
722,4.9606204,-2.44038,8.006085
723,5.0395837,-2.4427729,7.960622
724,5.020441,-2.4714868,7.998907
725,5.0180483,-2.44038,7.934301
726,5.0419765,-2.3973093,7.9510508
727,4.9869413,-2.437987,8.010871
728,5.006084,-2.4355943,7.9295154
729,5.0012984,-2.4236302,7.9630146
730,4.9917274,-2.399702,8.006085
731,5.0276194,-2.4308088,8.032407
732,5.0180483,-2.44038,8.013264
733,4.9606204,-2.4619155,7.9917283
734,4.989334,-2.4355943,7.98455
735,4.9917274,-2.4427729,8.0013
736,5.0515475,-2.4451656,7.9917283
737,4.9845486,-2.5193431,7.9917283
738,5.022834,-2.454737,7.9773717
739,4.9606204,-2.4738796,7.9462647
740,4.9725847,-2.4523442,8.0252285
741,4.955835,-2.387738,8.0348
742,5.0012984,-2.3611178,8.013264
743,5.022834,-2.4332016,7.9462647
744,5.020441,-2.3802602,7.9486575
745,4.9486566,-2.4212375,7.972586
746,4.970192,-2.4044876,7.986943
747,5.0108695,-2.3802602,7.972586
748,5.044369,-2.4044876,8.006085
749,4.970192,-2.4571297,8.0013
750,5.0012984,-2.4212375,8.020442
751,4.929514,-2.4236302,8.013264
752,4.9773703,-2.44038,7.9965143
753,4.99412,-2.4212375,8.0348
754,5.0395837,-2.4738796,7.9941216
755,4.99412,-2.466701,7.9654074
756,5.0276194,-2.4308088,7.9893355
757,4.99412,-2.4643083,8.020442
758,5.0084767,-2.495415,8.008478
759,4.9510493,-2.4355943,7.9773717
760,4.965406,-2.4308088,8.037192
761,4.9319067,-2.44038,7.9965143
762,4.9869413,-2.4499512,8.032407
763,5.0108695,-2.4595225,8.015656
764,4.996513,-2.4451656,7.9917283
765,4.9773703,-2.399702,7.9630146
766,4.953442,-2.4308088,7.9941216
767,4.9606204,-2.4332016,7.986943
768,5.0084767,-2.414059,8.037192
769,4.9845486,-2.4690938,7.9941216
770,5.003691,-2.4451656,8.027621
771,5.037191,-2.454737,8.018049
772,5.006084,-2.437987,7.958229
773,5.003691,-2.4092734,7.9941216
774,4.99412,-2.3829522,7.9797645
775,4.9845486,-2.3973093,7.943872
776,5.0276194,-2.4284158,7.9917283
777,5.0108695,-2.4499512,8.006085
778,5.0252266,-2.4236302,8.006085
779,5.003691,-2.437987,7.9678
780,4.9917274,-2.414059,7.9534435
781,4.9677987,-2.426023,7.9678
782,5.0084767,-2.3949163,8.0252285
783,4.9917274,-2.3949163,8.015656
784,4.996513,-2.426023,7.970193
785,4.9869413,-2.44038,7.98455
786,4.996513,-2.4164517,8.010871
787,5.044369,-2.4523442,8.008478
788,5.034798,-2.4619155,7.960622
789,5.046762,-2.4284158,7.982157
790,5.0156555,-2.4643083,7.9797645
791,5.0682974,-2.44038,7.9965143
792,4.9917274,-2.4332016,7.98455
793,5.032405,-2.426023,7.98455
794,5.006084,-2.3973093,8.041978
795,4.9582276,-2.4451656,7.972586
796,4.9677987,-2.4619155,7.9917283
797,4.936692,-2.4284158,7.998907
798,4.99412,-2.4212375,8.015656
799,4.9725847,-2.4116662,8.013264
800,5.0252266,-2.4068804,7.9654074
801,4.989334,-2.4116662,8.006085
802,5.0084767,-2.4236302,7.9941216
803,4.9725847,-2.4212375,8.0013
804,5.006084,-2.3973093,7.982157
805,5.006084,-2.3682961,7.958229
806,4.955835,-2.3802602,7.9773717
807,4.9917274,-2.3925235,7.998907
808,5.0012984,-2.426023,7.9630146
809,4.9845486,-2.4284158,8.003693
810,5.022834,-2.4355943,8.041978
811,5.034798,-2.437987,8.049156
812,5.0419765,-2.4355943,8.0252285
813,5.0395837,-2.44038,8.053942
814,4.99412,-2.4619155,7.9558363
815,4.9773703,-2.4044876,7.9678
816,4.9749775,-2.3973093,7.943872
817,5.0108695,-2.4116662,7.9797645
818,5.0012984,-2.387738,7.986943
819,4.9486566,-2.4116662,8.022835
820,5.034798,-2.4212375,8.015656
821,5.0252266,-2.3901308,7.9941216
822,5.0395837,-2.4212375,8.008478
823,5.0395837,-2.3949163,7.9773717
824,5.030012,-2.437987,8.039585
825,4.99412,-2.4212375,7.9654074
826,5.0012984,-2.4044876,8.051549
827,5.0108695,-2.399702,7.972586
828,4.9917274,-2.414059,7.9797645
829,4.965406,-2.3635106,8.032407
830,5.0156555,-2.437987,8.018049
831,5.0108695,-2.4714868,8.022835
832,5.046762,-2.4499512,8.020442
833,4.9917274,-2.466701,7.9941216
834,5.020441,-2.4738796,7.9893355
835,5.0012984,-2.4332016,7.9510508
836,5.0419765,-2.4499512,8.003693
837,5.003691,-2.4068804,8.041978
838,4.982156,-2.4164517,7.9390864
839,4.982156,-2.4332016,7.9558363
840,4.982156,-2.414059,7.986943
841,4.989334,-2.4332016,8.022835
842,5.0012984,-2.414059,8.018049
843,4.9773703,-2.3925235,7.9965143
844,4.989334,-2.399702,8.015656
845,4.9725847,-2.414059,7.9654074
846,4.9845486,-2.385345,7.998907
847,4.979763,-2.385345,7.9893355
848,5.0108695,-2.4188447,8.010871
849,5.0012984,-2.4427729,8.022835
850,5.0395837,-2.4523442,8.018049
851,5.046762,-2.4164517,8.006085
852,5.0156555,-2.4116662,7.9678
853,5.0276194,-2.4044876,7.986943
854,5.0276194,-2.4068804,7.9917283
855,4.979763,-2.3829522,7.934301
856,5.0012984,-2.385345,7.9917283
857,5.006084,-2.385345,7.998907
858,5.003691,-2.4116662,7.98455
859,5.0084767,-2.399702,7.9797645
860,5.003691,-2.44038,8.0348
861,5.003691,-2.4092734,8.032407
862,4.996513,-2.4164517,7.998907
863,4.996513,-2.4068804,7.98455
864,4.9989057,-2.4212375,7.9917283
865,5.0084767,-2.4044876,7.9941216
866,5.003691,-2.4475584,8.044371
867,5.034798,-2.4212375,8.041978
868,4.99412,-2.4595225,7.982157
869,5.022834,-2.4068804,8.015656
870,5.030012,-2.426023,7.9893355
871,4.9917274,-2.414059,8.015656
872,4.9773703,-2.4308088,7.958229
873,4.9845486,-2.4188447,8.0348
874,5.022834,-2.4475584,8.0013
875,5.0682974,-2.4355943,7.9366937
876,5.0108695,-2.4451656,7.9510508
877,4.996513,-2.385345,8.027621
878,4.9917274,-2.426023,7.98455
879,4.9989057,-2.4475584,8.003693
880,5.0276194,-2.4427729,7.9295154
881,5.003691,-2.4475584,7.970193
882,4.99412,-2.370689,7.986943
883,4.9989057,-2.385345,8.0252285
884,4.9917274,-2.4188447,7.982157
885,4.9725847,-2.4332016,7.98455
886,5.022834,-2.4284158,7.960622
887,4.99412,-2.387738,7.974979
888,5.020441,-2.3829522,7.931908
889,4.970192,-2.4020948,7.9893355
890,4.989334,-2.4044876,8.0013
891,4.99412,-2.437987,7.9630146
892,5.0108695,-2.44038,7.9965143
893,5.006084,-2.4284158,8.0348
894,5.0012984,-2.437987,8.006085
895,5.044369,-2.4499512,7.9941216
896,5.0276194,-2.4619155,7.9917283
897,5.0084767,-2.4044876,8.0013
898,5.0156555,-2.3925235,8.027621
899,5.003691,-2.4212375,7.9941216
900,5.0132627,-2.44038,8.020442
901,5.032405,-2.4236302,7.9558363
902,5.037191,-2.4332016,8.006085
903,5.0084767,-2.4164517,8.022835
904,5.037191,-2.4164517,8.013264
905,4.982156,-2.3754747,7.9678
906,4.979763,-2.370689,7.927122
907,4.965406,-2.3754747,7.943872
908,4.9917274,-2.4116662,7.9965143
909,5.0156555,-2.426023,7.9965143
910,4.9917274,-2.414059,8.003693
911,5.0252266,-2.3901308,7.9510508
912,5.0252266,-2.44038,8.003693
913,5.003691,-2.4188447,7.9893355
914,5.030012,-2.4738796,8.015656
915,5.0084767,-2.4499512,7.9917283
916,4.9773703,-2.426023,8.003693
917,5.022834,-2.4571297,7.9965143
918,5.0012984,-2.4643083,7.998907
919,5.0012984,-2.4164517,7.9678
920,5.0491548,-2.466701,8.039585
921,5.0108695,-2.44038,7.9965143
922,4.9989057,-2.4427729,8.013264
923,4.9725847,-2.4355943,8.015656
924,4.9462633,-2.4499512,7.998907
925,4.9462633,-2.4308088,7.9510508
926,4.9869413,-2.4308088,7.998907
927,4.9917274,-2.4092734,8.008478
928,4.982156,-2.4068804,7.9534435
929,5.006084,-2.3925235,8.020442
930,5.0276194,-2.387738,7.9510508
931,4.979763,-2.426023,7.982157
932,5.0084767,-2.4116662,7.9917283
933,5.032405,-2.3778675,8.0013
934,5.020441,-2.399702,8.003693
935,5.0012984,-2.3925235,7.9893355
936,5.0419765,-2.3778675,7.998907
937,4.996513,-2.3515465,7.998907
938,4.9845486,-2.3829522,7.9295154
939,5.0108695,-2.399702,8.003693
940,5.0754757,-2.4355943,7.982157
941,4.9989057,-2.3973093,7.982157
942,4.982156,-2.4188447,7.970193
943,4.982156,-2.4212375,8.010871
944,4.99412,-2.3659034,7.9965143
945,4.979763,-2.414059,8.041978
946,4.99412,-2.4499512,8.027621
947,4.982156,-2.4212375,8.022835
948,4.963013,-2.4092734,7.9893355
949,5.034798,-2.4523442,8.003693
950,5.032405,-2.495415,8.020442
951,5.0180483,-2.4212375,7.9965143
952,5.003691,-2.4332016,7.9678
953,4.9917274,-2.426023,7.9773717
954,5.0084767,-2.3973093,7.98455
955,4.965406,-2.4116662,8.008478
956,4.982156,-2.3973093,8.003693
957,5.006084,-2.4188447,7.9965143
958,4.9917274,-2.4164517,8.015656
959,5.0108695,-2.3949163,7.934301
960,4.9989057,-2.44038,7.9917283
961,4.970192,-2.4355943,7.9893355
962,4.9869413,-2.4164517,7.974979
963,5.0012984,-2.4116662,8.018049
964,5.0132627,-2.4332016,8.0348
965,4.9725847,-2.4451656,8.022835
966,4.982156,-2.3754747,8.030014
967,4.965406,-2.4068804,7.9678
968,4.9773703,-2.4332016,8.015656
969,4.9510493,-2.414059,7.998907
970,4.9869413,-2.4188447,7.98455
971,4.9989057,-2.4068804,7.98455
972,4.9606204,-2.3973093,7.998907
973,4.970192,-2.426023,8.0348
974,5.006084,-2.4619155,7.998907
975,5.0132627,-2.4762723,8.006085
976,5.0419765,-2.4308088,7.9941216
977,5.0132627,-2.4355943,7.9965143
978,5.0084767,-2.3973093,8.0252285
979,4.9917274,-2.3973093,7.9558363
980,5.0108695,-2.426023,7.970193
981,5.0108695,-2.437987,7.9797645
982,4.9725847,-2.4236302,7.982157
983,5.032405,-2.4643083,7.9893355
984,5.006084,-2.4236302,8.003693
985,5.0252266,-2.426023,7.9534435
986,5.0132627,-2.4451656,7.943872
987,4.9989057,-2.4020948,7.998907
988,4.9749775,-2.387738,7.9893355
989,4.9677987,-2.3949163,8.013264
990,5.0084767,-2.4284158,7.9941216
991,5.0156555,-2.4068804,8.020442
992,4.989334,-2.426023,7.982157
993,5.034798,-2.4116662,7.9917283
994,5.0012984,-2.3973093,7.958229
995,5.034798,-2.4116662,7.960622
996,5.003691,-2.4332016,7.9773717
997,4.996513,-2.4355943,7.9797645
998,5.0012984,-2.44038,7.9941216
999,4.963013,-2.4308088,7.9893355
1000,4.979763,-2.44038,7.982157
1001,4.9917274,-2.478665,8.006085
1002,5.0395837,-2.4762723,7.960622
1003,5.0276194,-2.4475584,7.98455
1004,5.0252266,-2.4571297,7.974979
1005,5.020441,-2.426023,7.934301
1006,5.003691,-2.4212375,8.032407
1007,4.963013,-2.4020948,7.9941216
1008,4.9677987,-2.4451656,7.9510508
1009,4.9510493,-2.4212375,8.037192
1010,4.9582276,-2.4044876,7.998907
1011,5.0276194,-2.3949163,7.972586
1012,4.979763,-2.3778675,7.9965143
1013,4.989334,-2.385345,8.039585
1014,5.037191,-2.356332,7.972586
1015,4.979763,-2.3949163,7.958229
1016,4.9989057,-2.4188447,8.015656
1017,5.006084,-2.4116662,8.006085
1018,5.0156555,-2.4236302,7.998907
1019,5.003691,-2.4020948,7.998907
1020,5.006084,-2.3802602,7.931908
1021,5.0252266,-2.3901308,7.9630146
1022,4.99412,-2.4068804,7.9773717
1023,5.0156555,-2.4212375,7.972586
1024,5.006084,-2.3829522,7.9773717
1025,5.0491548,-2.3949163,7.970193
1026,5.0539403,-2.4499512,8.022835
1027,5.032405,-2.437987,8.010871
1028,5.0252266,-2.414059,7.98455
1029,4.982156,-2.437987,8.0252285
1030,4.9845486,-2.4164517,7.98455
1031,5.0012984,-2.4164517,8.0252285
1032,5.0108695,-2.373082,7.9941216
1033,5.0108695,-2.4116662,7.972586
1034,5.003691,-2.3901308,7.9965143
1035,5.003691,-2.3754747,7.974979
1036,4.9917274,-2.3682961,7.9941216
1037,4.9677987,-2.4068804,7.9654074
1038,4.922335,-2.399702,7.9965143
1039,4.963013,-2.3682961,7.9965143
1040,5.0012984,-2.3973093,8.051549
1041,5.0084767,-2.3802602,8.015656
1042,5.0156555,-2.4164517,7.9390864
1043,5.003691,-2.4355943,8.008478
1044,5.0012984,-2.426023,8.032407
1045,5.0252266,-2.4212375,8.010871
1046,4.965406,-2.4068804,8.027621
1047,4.99412,-2.4212375,7.9941216
1048,4.9917274,-2.4020948,8.013264
1049,4.939085,-2.385345,7.9654074
1050,4.9342995,-2.3925235,8.027621
