,ax,ay,az
401,6.445666,-2.6512475,6.8371916
402,6.498607,-2.5719852,6.7148585
403,6.407381,-2.5337,6.7148585
404,6.4555364,-2.5384858,6.695716
405,6.376274,-2.5576284,6.8682985
406,6.3140607,-2.6102705,6.793822
407,6.328418,-2.5767708,6.8539414
408,6.302097,-2.545664,6.8204417
409,6.2877398,-2.603092,6.7555366
410,6.433702,-2.5839493,6.803393
411,6.433702,-2.5839493,6.803393
412,6.419345,-2.5265217,6.793822
413,6.460322,-2.545664,6.7818575
414,6.5081787,-2.495415,6.710073
415,6.5081787,-2.495415,6.710073
416,6.5751777,-2.5552354,6.652645
417,6.5751777,-2.5552354,6.652645
418,6.4938216,-2.586342,6.774679
419,6.4938216,-2.586342,6.774679
420,6.5057855,-2.5241287,6.712466
421,6.4794645,-2.5097718,6.7651076
422,6.4384875,-2.4595225,6.762715
423,6.431309,-2.478665,6.743572
424,6.431309,-2.478665,6.743572
425,6.5536423,-2.4858437,6.726823
426,6.5536423,-2.4858437,6.726823
427,6.460322,-2.4188447,6.7651076
428,6.460322,-2.4188447,6.7651076
429,6.4555364,-2.3778675,6.7698936
430,6.4938216,-2.3949163,6.8081784
431,6.4866433,-2.4068804,6.760322
432,6.4698935,-2.426023,6.767501
433,6.426523,-2.3949163,6.7651076
434,6.426523,-2.3949163,6.7651076
435,6.402595,-2.414059,6.736394
436,6.4002023,-2.3802602,6.743572
437,6.4002023,-2.3802602,6.743572
438,6.4408803,-2.4068804,6.767501
439,6.3978095,-2.4499512,6.760322
440,6.3738813,-2.4595225,6.7818575
441,6.4241304,-2.478665,6.8132634
442,6.5464635,-2.4882364,6.750751
443,6.5464635,-2.4882364,6.750751
444,6.4241304,-2.4595225,6.7651076
445,6.390631,-2.4308088,6.7387867
446,6.390631,-2.4308088,6.7387867
447,6.457929,-2.399702,6.7411795
448,6.4794645,-2.4595225,6.7316084
449,6.4627147,-2.4523442,6.767501
450,6.4627147,-2.4523442,6.767501
451,6.491429,-2.466701,6.786643
452,6.5225353,-2.454737,6.736394
453,6.4938216,-2.4427729,6.753144
454,6.477072,-2.4212375,6.8539414
455,6.4289165,-2.387738,6.777072
456,6.457929,-2.3682961,6.7483582
457,6.460322,-2.3802602,6.743572
458,6.5201426,-2.4188447,6.767501
459,6.591927,-2.481058,6.7052875
460,6.5057855,-2.44038,6.774679
461,6.450751,-2.3925235,6.7651076
462,6.409774,-2.387738,6.762715
463,6.3882384,-2.414059,6.8105717
464,6.3308105,-2.4212375,6.777072
465,6.369096,-2.3901308,6.767501
466,6.335596,-2.3949163,6.750751
467,6.3882384,-2.4571297,6.753144
468,6.450751,-2.466701,6.834799
469,6.450751,-2.466701,6.834799
470,6.450751,-2.5145576,6.753144
471,6.402595,-2.4690938,6.8252273
472,6.450751,-2.4714868,6.774679
473,6.369096,-2.4690938,6.777072
474,6.369096,-2.4690938,6.777072
475,6.352346,-2.4499512,6.8395844
476,6.349953,-2.4523442,6.786643
477,6.390631,-2.4499512,6.818049
478,6.390631,-2.4499512,6.818049
479,6.431309,-2.4475584,6.803393
480,6.4818573,-2.4762723,6.8371916
481,6.4818573,-2.4762723,6.8371916
482,6.409774,-2.4332016,6.858727
483,6.3954167,-2.4619155,6.8395844
484,6.378667,-2.4427729,6.8057857
485,6.4480586,-2.4068804,6.858727
486,6.4480586,-2.4068804,6.858727
487,6.407381,-2.3973093,6.8057857
488,6.407381,-2.3973093,6.8057857
489,6.443273,-2.4092734,6.801
490,6.443273,-2.4092734,6.801
491,6.402595,-2.4164517,6.84437
492,6.527321,-2.4164517,6.832406
493,6.3451676,-2.4619155,6.8276205
494,6.625427,-2.385345,6.832406
495,6.4818573,-2.437987,6.8395844
496,6.4818573,-2.437987,6.8395844
497,6.4480586,-2.426023,6.7698936
498,6.4480586,-2.426023,6.7698936
499,6.3547387,-2.4044876,6.8132634
500,6.3475604,-2.4332016,6.8081784
501,6.3882384,-2.3682961,6.8105717
502,6.3882384,-2.3682961,6.8105717
503,6.402595,-2.3682961,6.8371916
504,6.4384875,-2.4236302,6.8081784
505,6.4384875,-2.4236302,6.8081784
506,6.5081787,-2.4499512,6.8204417
507,6.5081787,-2.4499512,6.8204417
508,6.4675007,-2.483451,6.8132634
509,6.4675007,-2.483451,6.8132634
510,6.4121666,-2.454737,6.8081784
511,6.378667,-2.426023,6.8252273
512,6.3236322,-2.3754747,6.8105717
513,6.369096,-2.3754747,6.8706913
514,6.3643103,-2.4020948,6.8204417
515,6.407381,-2.414059,6.841977
516,6.460322,-2.4427729,6.8228345
517,6.460322,-2.4427729,6.8228345
518,6.4675007,-2.4427729,6.834799
519,6.4121666,-2.3829522,6.7962146
520,6.4121666,-2.3829522,6.7962146
521,6.393024,-2.3802602,6.8300133
522,6.393024,-2.3802602,6.8300133
523,6.3738813,-2.4164517,6.8635125
524,6.3738813,-2.4164517,6.8635125
525,6.390631,-2.4332016,6.8105717
526,6.4217377,-2.437987,6.8706913
527,6.3834524,-2.370689,6.8228345
528,6.3834524,-2.370689,6.8228345
529,6.390631,-2.3659034,6.7962146
530,6.390631,-2.3659034,6.7962146
531,6.3403816,-2.385345,6.875477
532,6.3403816,-2.385345,6.875477
533,6.3810596,-2.3635106,6.841977
534,6.3882384,-2.3925235,6.84437
535,6.3882384,-2.3925235,6.84437
536,6.378667,-2.4020948,6.774679
537,6.390631,-2.414059,6.8539414
538,6.390631,-2.3682961,6.897012
539,6.328418,-2.385345,6.856334
540,6.328418,-2.385345,6.856334
541,6.4555364,-2.4116662,6.8132634
542,6.4555364,-2.4116662,6.8132634
543,6.4698935,-2.4116662,6.8395844
544,6.4698935,-2.4116662,6.8395844
545,6.472286,-2.4523442,6.8276205
546,6.4217377,-2.4236302,6.8276205
547,6.4289165,-2.4188447,6.8539414
548,6.3547387,-2.3973093,6.834799
549,6.3547387,-2.3973093,6.834799
550,6.3547387,-2.3973093,6.834799
551,6.443273,-2.4212375,6.875477
552,6.443273,-2.4212375,6.875477
553,6.404988,-2.356332,6.834799
554,6.369096,-2.370689,6.8371916
555,6.369096,-2.370689,6.8371916
556,6.3571315,-2.3515465,6.803393
557,6.3571315,-2.3515465,6.803393
558,6.361917,-2.3754747,6.8081784
559,6.407381,-2.3659034,6.8635125
560,6.3810596,-2.3659034,6.875477
561,6.3954167,-2.4092734,6.84437
562,6.407381,-2.3754747,6.8802624
563,6.378667,-2.3467607,6.8539414
564,6.3882384,-2.3371894,6.8515487
565,6.3882384,-2.3371894,6.8515487
566,6.409774,-2.3491535,6.8081784
567,6.402595,-2.3467607,6.8659053
568,6.4480586,-2.399702,6.885048
569,6.445666,-2.3539393,6.858727
570,6.445666,-2.3949163,6.8228345
571,6.433702,-2.3539393,6.856334
572,6.433702,-2.3539393,6.856334
573,6.4384875,-2.3829522,6.8682985
574,6.366703,-2.399702,6.8371916
575,6.366703,-2.399702,6.8371916
576,6.4145594,-2.3682961,6.897012
577,6.4384875,-2.3682961,6.8682985
578,6.4555364,-2.370689,6.889834
579,6.3571315,-2.4044876,6.8874407
580,6.3571315,-2.4044876,6.8874407
581,6.369096,-2.399702,6.8611197
582,6.3882384,-2.3371894,6.8276205
583,6.3882384,-2.3371894,6.8276205
584,6.3571315,-2.3467607,6.875477
585,6.3738813,-2.332404,6.8467627
586,6.3738813,-2.332404,6.8467627
587,6.3882384,-2.3491535,6.8611197
588,6.3882384,-2.3491535,6.8611197
589,6.361917,-2.3635106,6.8874407
590,6.4145594,-2.373082,6.832406
591,6.4002023,-2.3802602,6.8515487
592,6.393024,-2.3395824,6.885048
593,6.3427744,-2.370689,6.8874407
594,6.3427744,-2.370689,6.8874407
595,6.4121666,-2.2941186,6.9352975
596,6.4121666,-2.344368,6.849156
597,6.4121666,-2.344368,6.849156
598,6.4241304,-2.315654,6.8922267
599,6.4241304,-2.315654,6.8922267
600,6.3978095,-2.277369,6.8659053
601,6.3810596,-2.2941186,6.889834
602,6.3643103,-2.277369,6.875477
603,6.3858457,-2.2797618,6.8706913
604,6.3595243,-2.274976,6.8778696
605,6.3595243,-2.274976,6.8778696
606,6.402595,-2.318047,6.9065833
607,6.404988,-2.344368,6.856334
608,6.4002023,-2.315654,6.8946195
609,6.393024,-2.3276181,6.9448686
610,6.4121666,-2.3228326,6.897012
611,6.4121666,-2.3228326,6.897012
612,6.378667,-2.315654,6.8706913
613,6.378667,-2.315654,6.8706913
614,6.402595,-2.3611178,6.899405
615,6.3858457,-2.344368,6.858727
616,6.4002023,-2.3778675,6.9209404
617,6.378667,-2.3611178,6.84437
618,6.4002023,-2.3347967,6.9065833
619,6.426523,-2.3682961,6.901798
620,6.404988,-2.356332,6.8706913
621,6.3882384,-2.318047,6.897012
622,6.369096,-2.3108685,6.8300133
623,6.4121666,-2.289333,6.858727
624,6.3978095,-2.2869403,6.8659053
625,6.376274,-2.2797618,6.899405
626,6.3834524,-2.30369,6.8802624
627,6.3451676,-2.274976,6.8706913
628,6.3978095,-2.3204398,6.925726
629,6.431309,-2.289333,6.9352975
630,6.3978095,-2.3084757,6.8874407
631,6.390631,-2.318047,6.8874407
632,6.361917,-2.3084757,6.889834
633,6.361917,-2.3084757,6.889834
634,6.3810596,-2.3012972,6.882655
635,6.352346,-2.315654,6.908976
636,6.376274,-2.318047,6.8778696
637,6.3714886,-2.3300111,6.858727
638,6.3714886,-2.3300111,6.858727
639,6.390631,-2.315654,6.897012
640,6.3810596,-2.3276181,6.8611197
641,6.3810596,-2.3276181,6.8611197
642,6.390631,-2.289333,6.8778696
643,6.390631,-2.289333,6.8778696
644,6.3978095,-2.3539393,6.8611197
645,6.3978095,-2.3539393,6.8611197
646,6.3643103,-2.3515465,6.9065833
647,6.3643103,-2.3515465,6.9065833
648,6.366703,-2.3539393,6.925726
649,6.366703,-2.3539393,6.925726
650,6.366703,-2.3539393,6.925726
651,6.393024,-2.3012972,6.899405
652,6.393024,-2.3012972,6.899405
653,6.3882384,-2.3132613,6.8539414
654,6.3882384,-2.3132613,6.8539414
655,6.4360948,-2.3252254,6.885048
656,6.433702,-2.2725832,6.8706913
657,6.402595,-2.3371894,6.9616184
658,6.3882384,-2.2965117,6.882655
659,6.3882384,-2.2965117,6.882655
660,6.407381,-2.2725832,6.913762
661,6.407381,-2.2725832,6.913762
662,6.3882384,-2.2845473,6.875477
663,6.3882384,-2.2845473,6.875477
664,6.3954167,-2.2917259,6.916155
665,6.3954167,-2.2917259,6.916155
666,6.3451676,-2.3228326,6.908976
667,6.352346,-2.2534406,6.923333
668,6.3810596,-2.332404,6.8922267
669,6.3810596,-2.332404,6.8922267
670,6.4408803,-2.3395824,6.889834
671,6.4408803,-2.3395824,6.889834
672,6.4145594,-2.2941186,6.9113693
673,6.4145594,-2.2941186,6.9113693
674,6.409774,-2.2941186,6.9041905
675,6.409774,-2.2941186,6.9041905
676,6.3571315,-2.2725832,6.882655
677,6.3571315,-2.2725832,6.882655
678,6.335596,-2.2606192,6.913762
679,6.337989,-2.263012,6.873084
680,6.3547387,-2.2558336,6.913762
681,6.3882384,-2.2869403,6.8682985
682,6.3882384,-2.2869403,6.8682985
683,6.3954167,-2.265405,6.940083
684,6.390631,-2.2797618,6.913762
685,6.393024,-2.3228326,6.841977
686,6.393024,-2.3276181,6.9065833
687,6.3738813,-2.2989044,6.908976
688,6.3738813,-2.2989044,6.908976
689,6.3978095,-2.3347967,6.9041905
690,6.3954167,-2.3060827,6.8539414
691,6.3954167,-2.3060827,6.8539414
692,6.402595,-2.3276181,6.8802624
693,6.402595,-2.3276181,6.8802624
694,6.3954167,-2.3108685,6.873084
695,6.3954167,-2.3108685,6.873084
696,6.349953,-2.2845473,6.925726
697,6.376274,-2.3012972,6.8706913
698,6.3834524,-2.30369,6.8635125
699,6.3834524,-2.30369,6.8635125
700,6.3834524,-2.30369,6.8635125
701,6.3834524,-2.2725832,6.849156
702,6.3834524,-2.2725832,6.849156
703,6.3978095,-2.263012,6.8778696
704,6.3978095,-2.263012,6.8778696
705,6.4241304,-2.2965117,6.9041905
706,6.4241304,-2.2965117,6.9041905
707,6.409774,-2.2845473,6.901798
708,6.409774,-2.2845473,6.901798
709,6.3643103,-2.2606192,6.885048
710,6.3643103,-2.2606192,6.885048
711,6.402595,-2.274976,6.8539414
712,6.402595,-2.2989044,6.8515487
713,6.361917,-2.2869403,6.8874407
714,6.3643103,-2.289333,6.9185476
715,6.3451676,-2.2917259,6.9352975
716,6.3978095,-2.3084757,6.916155
717,6.3810596,-2.30369,6.901798
718,6.369096,-2.318047,6.9113693
719,6.390631,-2.3659034,6.925726
720,6.4002023,-2.3491535,6.9448686
721,6.376274,-2.2821546,6.873084
722,6.3714886,-2.2701905,6.8946195
723,6.3954167,-2.3228326,6.899405
724,6.3738813,-2.2965117,6.8611197
725,6.431309,-2.2845473,6.84437
726,6.369096,-2.3228326,6.8611197
727,6.4145594,-2.3084757,6.8706913
728,6.3810596,-2.3347967,6.832406
729,6.404988,-2.2965117,6.9376903
730,6.3714886,-2.263012,6.899405
731,6.4002023,-2.3132613,6.9305115
732,6.4002023,-2.3132613,6.9305115
733,6.402595,-2.2821546,6.8659053
734,6.3954167,-2.2582264,6.882655
735,6.419345,-2.2821546,6.8635125
736,6.3834524,-2.2558336,6.882655
737,6.3595243,-2.2319052,6.8778696
738,6.3595243,-2.2319052,6.8778696
739,6.3595243,-2.2797618,6.8946195
740,6.3595243,-2.2797618,6.8946195
741,6.3738813,-2.2534406,6.9185476
742,6.3882384,-2.3012972,6.889834
743,6.3882384,-2.3012972,6.889834
744,6.4002023,-2.2797618,6.889834
745,6.3738813,-2.30369,6.916155
746,6.3714886,-2.2797618,6.9065833
747,6.4002023,-2.2797618,6.8874407
748,6.4121666,-2.2869403,6.9113693
749,6.4121666,-2.2869403,6.9113693
750,6.4289165,-2.2989044,6.849156
751,6.4289165,-2.2989044,6.849156
752,6.4217377,-2.277369,6.9113693
753,6.4217377,-2.277369,6.9113693
754,6.390631,-2.2510478,6.949654
755,6.390631,-2.2510478,6.949654
756,6.3834524,-2.2510478,6.9041905
757,6.3714886,-2.2223341,6.8539414
758,6.3714886,-2.2223341,6.8539414
759,6.3882384,-2.2797618,6.8611197
760,6.4145594,-2.2510478,6.8802624
761,6.4145594,-2.2510478,6.8802624
762,6.4002023,-2.2989044,6.8611197
763,6.3978095,-2.30369,6.9448686
764,6.3978095,-2.30369,6.9448686
765,6.393024,-2.2917259,6.8659053
766,6.3714886,-2.2917259,6.913762
767,6.3714886,-2.2917259,6.913762
768,6.4121666,-2.2821546,6.901798
769,6.407381,-2.3012972,6.8611197
770,6.3643103,-2.2869403,6.885048
771,6.3547387,-2.3132613,6.925726
772,6.349953,-2.3132613,6.908976
773,6.3978095,-2.3228326,6.901798
774,6.390631,-2.3371894,6.882655
775,6.3858457,-2.3228326,6.9065833
776,6.3714886,-2.274976,6.908976
777,6.378667,-2.277369,6.882655
778,6.378667,-2.277369,6.882655
779,6.4145594,-2.263012,6.856334
780,6.4145594,-2.263012,6.856334
781,6.409774,-2.2582264,6.913762
782,6.3834524,-2.2821546,6.8874407
783,6.3834524,-2.2821546,6.8874407
784,6.376274,-2.2725832,6.9209404
785,6.3978095,-2.2821546,6.882655
786,6.3978095,-2.2821546,6.882655
787,6.409774,-2.2821546,6.873084
788,6.404988,-2.2582264,6.8395844
789,6.352346,-2.2582264,6.9185476
790,6.3978095,-2.2869403,6.8922267
791,6.4002023,-2.318047,6.923333
792,6.4002023,-2.318047,6.923333
793,6.3810596,-2.2701905,6.899405
794,6.3810596,-2.2701905,6.899405
795,6.3714886,-2.2965117,6.8611197
796,6.3834524,-2.277369,6.9041905
797,6.3834524,-2.277369,6.9041905
798,6.393024,-2.3012972,6.923333
799,6.393024,-2.3012972,6.923333
800,6.3810596,-2.3371894,6.873084
801,6.416952,-2.263012,6.8706913
802,6.4217377,-2.3060827,6.875477
803,6.378667,-2.2965117,6.882655
804,6.402595,-2.30369,6.9041905
805,6.404988,-2.2869403,6.889834
806,6.419345,-2.2941186,6.873084
807,6.3547387,-2.277369,6.9113693
808,6.3978095,-2.277369,6.882655
809,6.393024,-2.3108685,6.9281187
810,6.4360948,-2.2797618,6.882655
811,6.4145594,-2.2534406,6.856334
812,6.402595,-2.3012972,6.925726
813,6.376274,-2.2941186,6.8922267
814,6.3475604,-2.2797618,6.8635125
815,6.3834524,-2.3228326,6.8946195
816,6.378667,-2.263012,6.9041905
817,6.378667,-2.263012,6.9041905
818,6.416952,-2.3012972,6.84437
819,6.416952,-2.3012972,6.84437
820,6.3738813,-2.2989044,6.908976
821,6.3738813,-2.2989044,6.908976
822,6.4480586,-2.3060827,6.889834
823,6.460322,-2.3276181,6.8946195
824,6.3834524,-2.2797618,6.882655
825,6.3834524,-2.2797618,6.882655
826,6.3978095,-2.2845473,6.8706913
827,6.3978095,-2.2845473,6.8706913
828,6.4002023,-2.2606192,6.8467627
829,6.3714886,-2.2845473,6.8682985
830,6.3714886,-2.2845473,6.8682985
831,6.376274,-2.3084757,6.873084
832,6.402595,-2.2869403,6.832406
833,6.3834524,-2.2390838,6.9185476
834,6.352346,-2.2390838,6.8539414
835,6.404988,-2.2271197,6.8682985
836,6.393024,-2.2534406,6.818049
837,6.404988,-2.2510478,6.9448686
838,6.3882384,-2.277369,6.8659053
839,6.402595,-2.2989044,6.8922267
840,6.4145594,-2.2821546,6.875477
841,6.4145594,-2.2821546,6.875477
842,6.378667,-2.2989044,6.897012
843,6.378667,-2.2989044,6.897012
844,6.3882384,-2.3347967,6.940083
845,6.393024,-2.2917259,6.908976
846,6.393024,-2.2917259,6.908976
847,6.393024,-2.2941186,6.8874407
848,6.3738813,-2.2725832,6.901798
849,6.3738813,-2.2725832,6.901798
850,6.3738813,-2.2725832,6.901798
851,6.376274,-2.2917259,6.925726
852,6.393024,-2.3395824,6.889834
853,6.393024,-2.3395824,6.889834
854,6.3834524,-2.2701905,6.897012
855,6.3954167,-2.2821546,6.908976
856,6.3954167,-2.2821546,6.908976
857,6.366703,-2.265405,6.832406
858,6.402595,-2.2725832,6.925726
859,6.3571315,-2.236691,6.8802624
860,6.3738813,-2.2797618,6.8802624
861,6.3451676,-2.3204398,6.9065833
862,6.3451676,-2.3204398,6.9065833
863,6.390631,-2.277369,6.899405
864,6.390631,-2.277369,6.899405
865,6.3595243,-2.2821546,6.942476
866,6.3595243,-2.2821546,6.942476
867,6.4384875,-2.2989044,6.8467627
868,6.4384875,-2.2989044,6.8467627
869,6.404988,-2.2725832,6.8539414
870,6.404988,-2.2725832,6.8539414
871,6.416952,-2.2797618,6.908976
872,6.416952,-2.2797618,6.908976
873,6.407381,-2.2797618,6.9065833
874,6.407381,-2.2797618,6.9065833
875,6.407381,-2.2797618,6.9065833
876,6.4145594,-2.3084757,6.9185476
877,6.4145594,-2.3084757,6.9185476
878,6.390631,-2.274976,6.8539414
879,6.4384875,-2.3108685,6.885048
880,6.4384875,-2.3108685,6.885048
881,6.404988,-2.3060827,6.9041905
882,6.431309,-2.274976,6.897012
883,6.431309,-2.274976,6.897012
884,6.366703,-2.2965117,6.9376903
885,6.366703,-2.2965117,6.9376903
886,6.3978095,-2.2462623,6.9041905
887,6.3643103,-2.263012,6.8611197
888,6.3643103,-2.263012,6.8611197
889,6.3427744,-2.2414765,6.940083
890,6.3834524,-2.2319052,6.8922267
891,6.3643103,-2.263012,6.913762
892,6.4480586,-2.2797618,6.9041905
893,6.4145594,-2.2558336,6.8539414
894,6.4145594,-2.2558336,6.8539414
895,6.402595,-2.2558336,6.8371916
896,6.402595,-2.2558336,6.8371916
897,6.4384875,-2.2606192,6.875477
898,6.4384875,-2.2606192,6.875477
899,6.474679,-2.224727,6.8228345
900,6.532107,-2.1984057,6.856334
