,ax,ay,az
301,-1.4760724,-9.432806,-1.721935
302,-1.5478572,-9.437592,-1.7291135
303,-1.5717853,-9.408877,-1.7748762
304,-1.5984055,-9.401699,-1.8155541
305,-1.5864414,-9.353843,-1.8083757
306,-1.6271194,-9.375379,-1.8562322
307,-1.6486548,-9.368199,-1.8801605
308,-1.6582261,-9.353843,-1.8897316
309,-1.6582261,-9.353843,-1.8897316
310,-1.6199409,-9.35145,-1.9471594
311,-1.6941184,-9.353843,-1.8897316
312,-1.6534405,-9.365807,-1.8442681
313,-1.7228323,-9.380164,-1.7676977
314,-1.7204394,-9.399306,-1.7482561
315,-1.7324036,-9.432806,-1.7123637
316,-1.6654046,-9.463913,-1.6669
317,-1.713261,-9.442377,-1.7195421
318,-1.6917256,-9.413663,-1.7482561
319,-1.7012969,-9.361021,-1.7362919
320,-1.7467605,-9.341879,-1.7724833
321,-1.7180467,-9.317652,-1.7796619
322,-1.7012969,-9.349057,-1.7410775
323,-1.7060826,-9.3200445,-1.7434704
324,-1.6941184,-9.339187,-1.7605193
325,-1.6677973,-9.408877,-1.8107685
326,-1.6175481,-9.361021,-1.80359
327,-1.6462619,-9.423235,-1.7796619
328,-1.6390835,-9.432806,-1.8562322
329,-1.6271194,-9.44477,-1.777269
330,-1.6701902,-9.408877,-1.7027924
331,-1.7036897,-9.418449,-1.6908283
332,-1.7802601,-9.38495,-1.6932211
333,-1.7898313,-9.394521,-1.6286149
334,-1.7826529,-9.363414,-1.6381862
335,-1.7730815,-9.38495,-1.6645073
336,-1.7443677,-9.349057,-1.7147565
337,-1.713261,-9.368199,-1.7434704
338,-1.6893328,-9.3562355,-1.8299111
339,-1.6438692,-9.406485,-1.8346968
340,-1.6510476,-9.392128,-1.7868403
341,-1.6462619,-9.380164,-1.8442681
342,-1.6606189,-9.382557,-1.8251255
343,-1.6965113,-9.396914,-1.7410775
344,-1.6462619,-9.425628,-1.6932211
345,-1.6414764,-9.423235,-1.6884354
346,-1.591227,-9.435199,-1.6262221
347,-1.5936198,-9.392128,-1.6142579
348,-1.5669997,-9.406485,-1.5879369
349,-1.5382859,-9.382557,-1.5664015
350,-1.5574285,-9.396914,-1.6286149
351,-1.5936198,-9.389735,-1.6286149
352,-1.6175481,-9.361021,-1.6501503
353,-1.6390835,-9.3562355,-1.6621144
354,-1.6773686,-9.332008,-1.6238292
355,-1.713261,-9.315259,-1.6381862
356,-1.7252251,-9.387342,-1.6501503
357,-1.7347964,-9.399306,-1.654936
358,-1.6917256,-9.44477,-1.6477575
359,-1.6534405,-9.420842,-1.6429719
360,-1.6271194,-9.425628,-1.5831513
361,-1.5741782,-9.38495,-1.5999011
362,-1.5741782,-9.38495,-1.5999011
363,-1.5071791,-9.387342,-1.7003996
364,-1.5071791,-9.387342,-1.7003996
365,-1.509572,-9.41127,-1.8370895
366,-1.5071791,-9.466306,-1.9088743
367,-1.5478572,-9.47827,-1.9208384
368,-1.6175481,-9.502198,-1.9328024
369,-1.6247265,-9.47827,-1.9232312
370,-1.6486548,-9.492626,-1.9830518
371,-1.713261,-9.447163,-1.9184456
372,-1.713261,-9.447163,-1.9184456
373,-1.7730815,-9.3200445,-1.9567307
374,-1.7419748,-9.257831,-1.9615164
375,-1.753939,-9.276974,-1.9639091
376,-1.672583,-9.286545,-1.9950159
377,-1.6151553,-9.298509,-1.9710877
378,-1.6079768,-9.262616,-2.0599213
379,-1.5960127,-9.276974,-2.1005993
380,-1.5311074,-9.296116,-2.1556342
381,-1.5119648,-9.303294,-2.1771696
382,-1.5000007,-9.30808,-2.1077776
383,-1.495215,-9.349057,-2.0718853
384,-1.4593227,-9.339187,-1.9304097
385,-1.5023935,-9.387342,-1.7724833
386,-1.5311074,-9.459127,-1.721935
387,-1.5406786,-9.456735,-1.6022938
388,-1.5960127,-9.53809,-1.5616158
389,-1.5816557,-9.545269,-1.5640087
390,-1.579263,-9.533304,-1.5041882
391,-1.576571,-9.559626,-1.5640087
392,-1.5669997,-9.530911,-1.6621144
393,-1.5454643,-9.499805,-1.7195421
394,-1.5143577,-9.416057,-1.8011973
395,-1.5143577,-9.394521,-1.8514465
396,-1.5239289,-9.404092,-1.8323039
397,-1.5000007,-9.372986,-1.8801605
398,-1.5143577,-9.344272,-1.9016958
399,-1.5071791,-9.358628,-1.8801605
400,-1.509572,-9.368199,-1.8466609
401,-1.5335002,-9.404092,-1.9160527
402,-1.5478572,-9.399306,-1.9710877
403,-1.579263,-9.372986,-1.9567307
404,-1.6007984,-9.439984,-1.911267
405,-1.6582261,-9.408877,-1.9328024
406,-1.7300107,-9.375379,-1.9304097
407,-1.7754744,-9.389735,-1.9567307
408,-1.7419748,-9.387342,-1.9160527
409,-1.6773686,-9.370592,-1.9519451
410,-1.6630118,-9.370592,-1.9495523
411,-1.6319051,-9.394521,-1.9040886
412,-1.5960127,-9.4280205,-1.8753748
413,-1.5717853,-9.406485,-1.9519451
414,-1.5311074,-9.432806,-1.9639091
415,-1.5598212,-9.466306,-1.9280169
416,-1.5287145,-9.420842,-1.9806589
417,-1.5960127,-9.394521,-1.9591235
418,-1.6031911,-9.389735,-2.05035
419,-1.7419748,-9.404092,-2.0575283
420,-1.8017955,-9.392128,-2.0407786
421,-1.8400806,-9.370592,-2.102992
422,-1.8305093,-9.349057,-2.0551355
423,-1.9073788,-9.332008,-2.1125634
424,-1.9193429,-9.339187,-2.0407786
425,-1.8906289,-9.3562355,-2.0045872
426,-1.7946169,-9.317652,-1.9686948
427,-1.7324036,-9.3562355,-1.9304097
428,-1.6271194,-9.35145,-1.9232312
429,-1.5430715,-9.361021,-1.9232312
430,-1.4904294,-9.401699,-1.9136599
431,-1.4880366,-9.370592,-1.899303
432,-1.4593227,-9.396914,-1.8681962
433,-1.5000007,-9.372986,-1.8011973
434,-1.5071791,-9.372986,-1.8275183
435,-1.509572,-9.406485,-1.8394824
436,-1.483251,-9.370592,-1.8538394
437,-1.5071791,-9.387342,-1.8562322
438,-1.4521443,-9.368199,-1.8777676
439,-1.4808581,-9.392128,-1.817947
440,-1.4880366,-9.420842,-1.8442681
441,-1.4760724,-9.387342,-1.805983
442,-1.4976078,-9.425628,-1.6884354
443,-1.5693926,-9.435199,-1.7315062
444,-1.5574285,-9.41127,-1.7386848
445,-1.5191432,-9.430413,-1.7410775
446,-1.5311074,-9.418449,-1.7820547
447,-1.5646069,-9.401699,-1.884946
448,-1.5864414,-9.392128,-1.8299111
449,-1.6175481,-9.439984,-1.817947
450,-1.6271194,-9.368199,-1.8777676
451,-1.5984055,-9.358628,-1.9351953
452,-1.6342978,-9.368199,-1.8681962
453,-1.6654046,-9.361021,-1.8299111
454,-1.6773686,-9.38495,-1.8299111
455,-1.6941184,-9.389735,-1.8394824
456,-1.6630118,-9.3562355,-1.8155541
457,-1.6366907,-9.401699,-1.8442681
458,-1.6677973,-9.418449,-1.8490537
459,-1.6821543,-9.418449,-1.8011973
460,-1.6175481,-9.389735,-1.817947
461,-1.6271194,-9.375379,-1.777269
462,-1.6414764,-9.396914,-1.8370895
463,-1.6534405,-9.377771,-1.7868403
464,-1.6390835,-9.392128,-1.7338991
465,-1.6414764,-9.363414,-1.7410775
466,-1.6534405,-9.339187,-1.7099708
467,-1.6103697,-9.4280205,-1.7338991
468,-1.5669997,-9.404092,-1.7075781
469,-1.5478572,-9.401699,-1.8011973
470,-1.4497514,-9.392128,-1.7724833
471,-1.495215,-9.392128,-1.7458632
472,-1.4330016,-9.420842,-1.7434704
473,-1.468894,-9.394521,-1.8131614
474,-1.4808581,-9.430413,-1.7892331
475,-1.5167505,-9.406485,-1.777269
476,-1.5430715,-9.423235,-1.7315062
477,-1.5598212,-9.471091,-1.6836498
478,-1.6223338,-9.413663,-1.7458632
479,-1.5646069,-9.44477,-1.7267207
480,-1.576571,-9.459127,-1.7291135
481,-1.5984055,-9.456735,-1.7315062
482,-1.5646069,-9.466306,-1.7557336
483,-1.5478572,-9.423235,-1.80359
484,-1.5717853,-9.399306,-1.7724833
485,-1.5936198,-9.344272,-1.7724833
486,-1.5693926,-9.336794,-1.8251255
487,-1.5693926,-9.336794,-1.8251255
488,-1.5816557,-9.38495,-1.8227327
489,-1.5816557,-9.353843,-1.8418752
490,-1.605584,-9.382557,-1.8897316
491,-1.5840486,-9.377771,-1.8634106
492,-1.5622141,-9.413663,-1.884946
493,-1.5239289,-9.396914,-1.9016958
494,-1.5263218,-9.439984,-1.9328024
495,-1.5550356,-9.41127,-1.8777676
496,-1.5478572,-9.368199,-1.8466609
497,-1.6271194,-9.372986,-1.8275183
498,-1.6342978,-9.380164,-1.8562322
499,-1.6414764,-9.437592,-1.8203398
500,-1.6079768,-9.3562355,-1.791626
501,-1.5960127,-9.423235,-1.7868403
502,-1.6151553,-9.420842,-1.7940187
503,-1.5960127,-9.420842,-1.7868403
504,-1.5646069,-9.430413,-1.8083757
505,-1.579263,-9.454341,-1.8418752
506,-1.6151553,-9.420842,-1.8299111
507,-1.5840486,-9.418449,-1.8083757
508,-1.5960127,-9.425628,-1.8251255
509,-1.5888343,-9.425628,-1.8107685
510,-1.5888343,-9.425628,-1.7796619
511,-1.5741782,-9.418449,-1.6788642
512,-1.5239289,-9.408877,-1.7099708
513,-1.5502499,-9.454341,-1.681257
514,-1.5526428,-9.416057,-1.7003996
515,-1.5239289,-9.432806,-1.762912
516,-1.5071791,-9.432806,-1.7386848
517,-1.5167505,-9.425628,-1.7267207
518,-1.5071791,-9.413663,-1.817947
519,-1.5215361,-9.394521,-1.8346968
520,-1.6223338,-9.406485,-1.7844474
521,-1.5840486,-9.361021,-1.7676977
522,-1.6271194,-9.372986,-1.6597216
523,-1.7012969,-9.435199,-1.6860427
524,-1.6462619,-9.416057,-1.6692929
525,-1.6103697,-9.387342,-1.7243278
526,-1.5526428,-9.44477,-1.6740786
527,-1.5382859,-9.425628,-1.7027924
528,-1.5000007,-9.420842,-1.7338991
529,-1.5669997,-9.454341,-1.7195421
530,-1.5358931,-9.471091,-1.7291135
531,-1.5311074,-9.420842,-1.7940187
532,-1.605584,-9.425628,-1.8705891
533,-1.6582261,-9.372986,-1.7844474
534,-1.6917256,-9.406485,-1.7653049
535,-1.6893328,-9.394521,-1.6357933
536,-1.68694,-9.420842,-1.6692929
537,-1.605584,-9.432806,-1.6334006
538,-1.5598212,-9.4280205,-1.6788642
539,-1.5936198,-9.420842,-1.681257
540,-1.5526428,-9.416057,-1.7195421
541,-1.5622141,-9.396914,-1.7291135
542,-1.6175481,-9.375379,-1.7243278
543,-1.6606189,-9.370592,-1.7195421
544,-1.6941184,-9.387342,-1.7267207
545,-1.7036897,-9.430413,-1.721935
546,-1.6677973,-9.413663,-1.6884354
547,-1.6414764,-9.432806,-1.7267207
548,-1.5936198,-9.420842,-1.7482561
549,-1.6127625,-9.420842,-1.7724833
550,-1.5598212,-9.435199,-1.762912
551,-1.5550356,-9.435199,-1.6932211
552,-1.605584,-9.396914,-1.6860427
553,-1.6007984,-9.425628,-1.681257
554,-1.5816557,-9.413663,-1.6070795
555,-1.5717853,-9.416057,-1.6310078
556,-1.5717853,-9.46152,-1.6046867
557,-1.5598212,-9.480662,-1.5783657
558,-1.5430715,-9.471091,-1.6429719
559,-1.5574285,-9.463913,-1.6381862
560,-1.5646069,-9.420842,-1.6764714
561,-1.6031911,-9.425628,-1.6764714
562,-1.591227,-9.370592,-1.681257
563,-1.6319051,-9.401699,-1.6860427
564,-1.6031911,-9.353843,-1.7075781
565,-1.6127625,-9.423235,-1.7003996
566,-1.6462619,-9.389735,-1.7243278
567,-1.6151553,-9.370592,-1.7557336
568,-1.6223338,-9.375379,-1.7724833
569,-1.6247265,-9.401699,-1.7676977
570,-1.6103697,-9.408877,-1.7458632
571,-1.6223338,-9.418449,-1.777269
572,-1.6223338,-9.418449,-1.7482561
573,-1.6079768,-9.425628,-1.7075781
574,-1.6031911,-9.413663,-1.7581264
575,-1.5840486,-9.399306,-1.7533408
576,-1.6295122,-9.368199,-1.7557336
577,-1.6558332,-9.401699,-1.7338991
578,-1.7012969,-9.399306,-1.7581264
579,-1.7156538,-9.418449,-1.762912
580,-1.6893328,-9.394521,-1.7291135
581,-1.6558332,-9.401699,-1.8011973
582,-1.6319051,-9.399306,-1.7796619
583,-1.6007984,-9.375379,-1.7386848
584,-1.576571,-9.41127,-1.7362919
585,-1.5598212,-9.430413,-1.7605193
586,-1.5717853,-9.416057,-1.7533408
587,-1.591227,-9.396914,-1.6932211
588,-1.6175481,-9.408877,-1.7434704
589,-1.6606189,-9.399306,-1.6980067
590,-1.6438692,-9.413663,-1.6860427
591,-1.6366907,-9.437592,-1.6573287
592,-1.6247265,-9.406485,-1.681257
593,-1.6007984,-9.437592,-1.721935
594,-1.5574285,-9.432806,-1.7557336
595,-1.579263,-9.420842,-1.7458632
596,-1.5311074,-9.420842,-1.7171494
597,-1.6007984,-9.3562355,-1.7267207
598,-1.6223338,-9.375379,-1.6788642
599,-1.6558332,-9.439984,-1.7147565
600,-1.6510476,-9.413663,-1.7027924
601,-1.6677973,-9.377771,-1.7171494
602,-1.6271194,-9.401699,-1.7362919
603,-1.5984055,-9.406485,-1.7291135
604,-1.5936198,-9.442377,-1.7844474
605,-1.5526428,-9.44477,-1.7533408
606,-1.5550356,-9.483055,-1.7557336
607,-1.5406786,-9.430413,-1.721935
608,-1.5239289,-9.44477,-1.681257
609,-1.5382859,-9.447163,-1.6716857
610,-1.5287145,-9.423235,-1.6621144
611,-1.5526428,-9.44477,-1.6692929
612,-1.5574285,-9.425628,-1.6381862
613,-1.5960127,-9.432806,-1.6525432
614,-1.579263,-9.4280205,-1.681257
615,-1.6151553,-9.420842,-1.7123637
616,-1.6486548,-9.459127,-1.6980067
617,-1.6749759,-9.439984,-1.7171494
618,-1.6366907,-9.382557,-1.695614
619,-1.6462619,-9.399306,-1.6764714
620,-1.6079768,-9.418449,-1.7171494
621,-1.5430715,-9.404092,-1.6764714
622,-1.5574285,-9.41127,-1.7338991
623,-1.5191432,-9.4280205,-1.695614
624,-1.5406786,-9.38495,-1.6884354
625,-1.5960127,-9.430413,-1.7051853
626,-1.6031911,-9.41127,-1.7434704
627,-1.6223338,-9.41127,-1.7315062
628,-1.6103697,-9.432806,-1.7820547
629,-1.5936198,-9.413663,-1.750948
630,-1.6558332,-9.447163,-1.6788642
631,-1.6223338,-9.418449,-1.695614
632,-1.6749759,-9.368199,-1.7051853
633,-1.6223338,-9.423235,-1.6908283
634,-1.605584,-9.392128,-1.6645073
635,-1.576571,-9.413663,-1.6884354
636,-1.6007984,-9.425628,-1.6692929
637,-1.5717853,-9.401699,-1.7171494
638,-1.6247265,-9.41127,-1.7386848
639,-1.5646069,-9.435199,-1.7581264
640,-1.6127625,-9.399306,-1.7195421
641,-1.5960127,-9.416057,-1.7291135
642,-1.6103697,-9.416057,-1.7410775
643,-1.5960127,-9.408877,-1.6932211
644,-1.5840486,-9.454341,-1.7003996
645,-1.5335002,-9.430413,-1.7362919
646,-1.5287145,-9.416057,-1.721935
647,-1.5693926,-9.4280205,-1.7482561
648,-1.5550356,-9.406485,-1.6669
649,-1.5960127,-9.4280205,-1.6669
650,-1.605584,-9.466306,-1.6573287
651,-1.5984055,-9.442377,-1.6166508
652,-1.6007984,-9.447163,-1.6884354
653,-1.5840486,-9.44477,-1.6836498
654,-1.5669997,-9.46152,-1.6716857
655,-1.5646069,-9.404092,-1.7051853
656,-1.6031911,-9.361021,-1.7051853
657,-1.5984055,-9.387342,-1.6980067
658,-1.6677973,-9.447163,-1.7291135
659,-1.6390835,-9.4686985,-1.7315062
660,-1.6438692,-9.392128,-1.6932211
661,-1.6031911,-9.404092,-1.7267207
662,-1.5622141,-9.442377,-1.7748762
663,-1.4760724,-9.459127,-1.7653049
664,-1.509572,-9.432806,-1.7700906
665,-1.5071791,-9.406485,-1.7820547
666,-1.5335002,-9.401699,-1.7243278
667,-1.605584,-9.387342,-1.6980067
668,-1.6007984,-9.365807,-1.7653049
669,-1.6390835,-9.406485,-1.7051853
670,-1.6271194,-9.408877,-1.6860427
671,-1.579263,-9.418449,-1.654936
672,-1.591227,-9.41127,-1.6669
673,-1.5646069,-9.408877,-1.6980067
674,-1.5574285,-9.451948,-1.7051853
675,-1.5669997,-9.401699,-1.6716857
676,-1.5550356,-9.406485,-1.6764714
677,-1.5646069,-9.38495,-1.6836498
678,-1.5669997,-9.408877,-1.7243278
679,-1.5574285,-9.399306,-1.7123637
680,-1.576571,-9.380164,-1.6932211
681,-1.5550356,-9.423235,-1.6764714
682,-1.5936198,-9.408877,-1.640579
683,-1.5816557,-9.413663,-1.6884354
684,-1.6079768,-9.4280205,-1.6788642
685,-1.591227,-9.459127,-1.721935
686,-1.5864414,-9.4280205,-1.6836498
687,-1.6103697,-9.437592,-1.7003996
688,-1.5478572,-9.425628,-1.6764714
689,-1.5478572,-9.425628,-1.6764714
690,-1.5382859,-9.375379,-1.7291135
691,-1.576571,-9.408877,-1.7410775
692,-1.5693926,-9.406485,-1.7075781
693,-1.576571,-9.401699,-1.762912
694,-1.6199409,-9.439984,-1.7195421
695,-1.6295122,-9.466306,-1.7605193
696,-1.6103697,-9.44477,-1.7653049
697,-1.5669997,-9.459127,-1.6980067
698,-1.605584,-9.401699,-1.721935
699,-1.5816557,-9.454341,-1.721935
700,-1.5550356,-9.437592,-1.7003996
701,-1.5502499,-9.430413,-1.681257
702,-1.5239289,-9.396914,-1.695614
703,-1.5143577,-9.406485,-1.7291135
704,-1.5430715,-9.399306,-1.7051853
705,-1.5430715,-9.375379,-1.7988044
706,-1.576571,-9.394521,-1.777269
707,-1.5888343,-9.406485,-1.7653049
708,-1.591227,-9.4280205,-1.805983
709,-1.6103697,-9.389735,-1.8107685
710,-1.6342978,-9.336794,-1.7700906
711,-1.591227,-9.370592,-1.6884354
712,-1.6127625,-9.396914,-1.7027924
713,-1.5816557,-9.423235,-1.6573287
714,-1.5741782,-9.435199,-1.6645073
715,-1.5335002,-9.46152,-1.6621144
716,-1.5191432,-9.4280205,-1.7267207
717,-1.5023935,-9.442377,-1.7027924
718,-1.5263218,-9.392128,-1.7195421
719,-1.5816557,-9.432806,-1.6740786
720,-1.6295122,-9.4280205,-1.6884354
721,-1.6247265,-9.408877,-1.6573287
722,-1.672583,-9.38495,-1.7123637
723,-1.6319051,-9.451948,-1.7003996
724,-1.6342978,-9.420842,-1.7243278
725,-1.6127625,-9.396914,-1.7482561
726,-1.591227,-9.425628,-1.8011973
727,-1.5669997,-9.420842,-1.7868403
728,-1.5816557,-9.423235,-1.80359
729,-1.5311074,-9.430413,-1.7482561
730,-1.5263218,-9.406485,-1.7027924
731,-1.5430715,-9.420842,-1.681257
732,-1.509572,-9.44477,-1.6908283
733,-1.5191432,-9.41127,-1.6501503
734,-1.6007984,-9.437592,-1.6573287
735,-1.5335002,-9.485448,-1.6692929
736,-1.5287145,-9.437592,-1.6932211
737,-1.5741782,-9.380164,-1.6716857
738,-1.6199409,-9.389735,-1.6597216
739,-1.6223338,-9.3562355,-1.6980067
740,-1.605584,-9.389735,-1.7051853
741,-1.5888343,-9.41127,-1.7171494
742,-1.576571,-9.404092,-1.7195421
743,-1.5454643,-9.406485,-1.6621144
744,-1.5263218,-9.463913,-1.7051853
745,-1.5550356,-9.437592,-1.6477575
746,-1.5287145,-9.420842,-1.6716857
747,-1.5646069,-9.425628,-1.6884354
748,-1.5646069,-9.413663,-1.681257
749,-1.5382859,-9.432806,-1.7267207
750,-1.5622141,-9.463913,-1.6429719
751,-1.576571,-9.454341,-1.6836498
752,-1.5960127,-9.418449,-1.7147565
753,-1.6151553,-9.435199,-1.7386848
754,-1.6223338,-9.435199,-1.6645073
755,-1.6247265,-9.447163,-1.7338991
756,-1.6007984,-9.382557,-1.7027924
757,-1.6295122,-9.394521,-1.7458632
758,-1.591227,-9.425628,-1.7434704
759,-1.5888343,-9.435199,-1.7533408
760,-1.6127625,-9.399306,-1.7581264
761,-1.6271194,-9.399306,-1.7748762
762,-1.6247265,-9.392128,-1.7099708
763,-1.6558332,-9.408877,-1.7291135
764,-1.6414764,-9.435199,-1.695614
765,-1.6271194,-9.408877,-1.7557336
766,-1.5574285,-9.392128,-1.7291135
767,-1.5888343,-9.408877,-1.7267207
768,-1.6007984,-9.38495,-1.7434704
769,-1.5693926,-9.382557,-1.6525432
770,-1.5598212,-9.41127,-1.6836498
771,-1.5526428,-9.437592,-1.6669
772,-1.5598212,-9.394521,-1.6740786
773,-1.5119648,-9.408877,-1.7051853
774,-1.5311074,-9.416057,-1.640579
775,-1.5023935,-9.442377,-1.6597216
776,-1.509572,-9.502198,-1.6334006
777,-1.5358931,-9.4686985,-1.7171494
778,-1.5382859,-9.442377,-1.6453646
779,-1.5215361,-9.420842,-1.6190436
780,-1.5526428,-9.471091,-1.5927225
781,-1.5502499,-9.471091,-1.6262221
782,-1.5840486,-9.435199,-1.5448661
783,-1.5406786,-9.4686985,-1.559223
784,-1.4880366,-9.475877,-1.5999011
785,-1.4401802,-9.456735,-1.6142579
786,-1.4042878,-9.437592,-1.6597216
787,-1.4042878,-9.418449,-1.6740786
788,-1.4353945,-9.423235,-1.681257
789,-1.4377873,-9.425628,-1.7243278
790,-1.5358931,-9.406485,-1.791626
791,-1.5669997,-9.399306,-1.7581264
792,-1.6031911,-9.38495,-1.8203398
793,-1.6151553,-9.399306,-1.7362919
794,-1.6271194,-9.344272,-1.791626
795,-1.6271194,-9.439984,-1.8107685
796,-1.5984055,-9.41127,-1.7724833
797,-1.6007984,-9.401699,-1.7820547
798,-1.5864414,-9.401699,-1.7676977
799,-1.579263,-9.451948,-1.7075781
800,-1.5406786,-9.389735,-1.7362919
