,ax,ay,az
501,-4.1087756,-2.3778675,8.212168
502,-5.0862436,-1.1467602,8.885149
503,-5.5340004,-0.7923234,9.369097
504,-5.4095736,-0.92153585,9.230313
505,-5.6467624,-1.1395818,10.022936
506,-5.371289,-1.5972091,10.49492
507,-5.689833,-2.3300111,11.069796
508,-6.113662,-2.6270201,11.187344
509,-6.068198,-2.684747,10.518848
510,-5.6706905,-2.4571297,9.994222
511,-5.5244293,-1.9061823,10.779965
512,-5.1029935,-1.82692,10.9788685
513,-4.788935,-1.9803598,11.170593
514,-5.354539,-2.4355943,11.824432
515,-5.8525453,-2.6270201,12.126227
516,-6.2048883,-2.4212375,11.843575
517,-6.0634127,-2.4427729,11.37189
518,-5.879165,-2.6222346,10.87837
519,-5.730511,-2.833102,10.696217
520,-5.6180487,-3.144468,10.643574
521,-5.641977,-3.3074791,10.734502
522,-5.871987,-3.3768709,10.549955
523,-5.912665,-3.3792639,10.363315
524,-5.953343,-3.460919,10.372886
525,-5.8429737,-3.4704902,10.2361965
526,-5.476573,-3.5039897,10.051949
527,-5.1675997,-3.4055848,9.850653
528,-4.7626143,-3.2452657,9.58475
529,-4.2909293,-2.8809586,8.906684
530,-4.036991,-2.78046,8.81815
531,-3.885944,-2.8570302,8.995518
532,-4.1015973,-2.972185,8.918648
533,-3.653541,-2.8761728,8.993125
534,-3.5482569,-2.7421749,9.103194
535,-3.6607196,-2.274976,9.045767
536,-3.8691943,-1.7383857,9.1103735
537,-3.778267,-1.6594225,9.024232
538,-3.5578282,-1.5346966,9.318848
539,-3.3589249,-1.4437693,9.829117
540,-3.1695926,-1.2329018,9.668499
541,-2.7385855,-1.4820545,9.587143
542,-2.853441,-2.2055843,10.197911
543,-3.0690942,-3.0320053,9.426525
544,-2.1948166,-3.891926,9.076874
545,-1.998306,-4.4524446,8.482856
546,-1.6941184,-5.382056,7.239485
547,-2.1661026,-6.7378893,4.458427
548,-3.0379875,-8.067402,2.771786
549,-3.5171502,-9.456735,0.8578269
550,-5.308776,-13.141083,-0.29192436
551,-7.589435,-17.515163,-1.6118652
552,-7.2876406,-20.027925,-6.201598
553,-6.710372,-21.362223,-8.29771
554,-6.2718873,-29.315367,-5.782555
555,-7.512865,-36.394234,-4.165605
556,-9.09153,-38.540596,-4.7189455
557,-8.030313,-34.434513,-3.7821553
558,-5.8887367,-28.246973,-3.5856447
559,-4.0680976,-23.151756,-2.876771
560,-3.1839497,-19.275982,-1.8011973
561,-0.019740786,-8.968,17.123339
562,0.3900301,-2.3635106,29.129625
563,0.37806597,-0.5096712,27.773792
564,0.2868396,-2.6174488,10.049556
565,-0.5706882,-3.8943188,2.9252257
566,-1.6079768,-3.958925,-0.6678966
567,-1.8424734,-2.6632116,2.8319056
568,-6.341279,-1.719243,13.918152
569,-6.8108706,-1.9468603,5.718248
570,-2.8725836,-2.0401804,-1.3387842
571,-1.2843475,-1.8607187,-3.5162528
572,0.10977074,-1.5179468,-3.6960137
573,0.13130614,-1.2568301,-2.1149561
574,1.4464613,-0.22432712,-2.2680967
575,1.8248264,0.68105716,-3.949952
576,1.654936,0.61884373,-4.955835
577,1.3528421,0.75284183,-3.9882371
578,1.151845,1.0642079,-2.838486
579,0.8811569,1.2559328,-1.777269
580,0.49292147,1.1386845,-1.084846
581,0.12173485,1.2200404,-0.8452646
582,-0.4435695,1.2846466,-1.6453646
583,-0.48185465,1.4189439,-3.1331022
584,0.05712864,1.8164514,-5.257929
585,0.5626124,2.0057836,-5.432605
586,1.1135598,2.0991037,-5.68415
587,0.23659034,0.9661021,-5.2145586
588,-1.2053844,0.35294133,-4.65404
589,-1.8376877,0.16600206,-3.463611
590,-2.3961127,0.07986046,-2.388037
591,-2.6090739,0.0029910284,-1.2191432
592,-2.4942186,-0.09990034,-0.3804588
593,-2.242673,-0.25812575,-0.018843478
594,-2.283351,-0.43040898,0.27816564
595,-2.3024936,-0.5479564,0.26620153
596,-2.6330023,-0.7393822,0.23988047
597,-2.4487548,-0.6963114,0.38344982
598,-1.8523438,-0.2533401,0.8769695
599,-1.3034902,-0.028115666,1.2005987
600,-2.6859434,-4.0334015,49.465027
601,-4.928018,-8.160722,18.045471
602,-8.370393,-8.476873,-16.54308
603,-3.2105699,-10.37169,-14.734404
604,-3.4307094,-12.446267,-6.9993052
605,-3.4307094,-20.799313,11.323734
606,2.4092734,-63.341007,56.287266
607,-3.9050865,-77.65906,33.33621
608,-13.417753,-77.110504,19.245771
609,-5.6324053,-41.141895,-10.029516
610,-3.9361932,-19.196718,-17.158632
611,-5.9294147,-7.7560353,-12.777374
612,-7.2756763,-3.7292142,-8.321639
613,-6.7438717,-1.1132607,-3.8682969
614,-5.3473606,1.945963,0.062512495
615,-4.295715,4.4060836,4.5565324
616,-4.8035913,4.4898324,7.9247293
617,-3.0523443,3.6466618,13.422239
618,-3.3756745,-0.6891329,11.251949
619,-2.2905295,-4.0357943,9.412168
620,0.55034924,-6.675676,7.9965143
621,2.1891336,-8.170293,6.832406
622,2.387738,-11.301301,10.399207
623,3.5162528,-11.780464,10.959726
624,0.34456646,-10.455738,9.71157
625,-3.095415,-7.952247,10.796715
626,-4.8705907,-5.1568317,9.565608
627,-3.7208393,-1.1204392,7.304091
628,-1.7850457,3.3400812,5.871688
629,-1.4162519,6.6361947,4.8439703
630,-3.871587,6.655337,6.0370917
631,-3.804588,2.149353,8.200203
632,-2.1924238,-2.586342,10.530812
633,-2.50379,-5.032106,10.693824
634,-4.254738,-5.619245,10.11177
635,-5.680262,-5.168796,9.35474
636,-5.11735,-4.0980077,9.501001
637,-3.330211,-2.9410782,8.46132
638,-3.0068808,-1.747957,8.559425
639,-3.3062828,-0.9813564,8.839685
640,-4.4368916,-0.9693923,9.599107
641,-4.5975094,-1.4844474,10.121341
642,-4.877769,-1.8918254,10.080663
643,-4.482355,-1.9827527,9.805189
644,-4.048955,-1.977967,9.52493
645,-4.211667,-1.7336,9.740284
646,-4.403392,-1.4533406,9.987043
647,-4.6525445,-1.2879368,10.140483
648,-4.7171507,-1.1395818,10.142876
649,-4.7075796,-1.0582259,9.888938
650,-4.7745786,-1.2855439,10.173983
651,-4.7339005,-1.6331015,10.629217
652,-5.0165524,-1.9564316,10.957334
653,-5.38086,-1.8822541,10.614861
654,-5.7137613,-1.8245273,10.296316
655,-5.946164,-1.8029919,10.334601
656,-6.0897336,-1.992324,10.617253
657,-5.773582,-2.0808585,10.451849
658,-5.577071,-2.1864417,10.41835
659,-5.388038,-2.2845473,10.392029
660,-5.2680984,-2.4044876,10.313066
661,-5.2489557,-2.5049863,10.4159565
662,-5.2633123,-2.7182465,10.744073
663,-5.110172,-2.8977082,10.799108
664,-4.9399824,-3.1660035,10.962119
665,-4.623831,-3.3768709,10.844871
666,-4.592724,-3.4103706,10.811071
667,-4.7482576,-3.3146574,10.856834
668,-4.621438,-3.2452657,10.840085
669,-4.2308097,-3.2093735,9.2997055
670,-3.9744785,-3.022434,10.269695
671,-4.106383,-3.3433714,9.282955
672,-3.8620157,-3.3529427,9.706784
673,-3.8835511,-3.6308093,10.844871
674,-3.9673,-3.8608193,11.271092
675,-3.8668015,-3.824927,10.140483
676,-4.0298123,-3.4079776,10.315458
677,-4.1494536,-2.5600212,10.744073
678,-4.2068815,-2.097608,10.039985
679,-4.235595,-2.1385853,9.656535
680,-4.1231327,-2.114358,9.364311
681,-3.8668015,-2.167299,9.728319
682,-3.3924243,-2.5791638,9.718748
683,-2.9012976,-3.202195,9.539287
684,-3.0978081,-4.6633124,8.837293
685,-2.5707889,-5.1616178,8.492427
686,-2.1780667,-5.9880385,9.692428
687,-2.1900308,-7.003792,8.602496
688,-2.4008985,-7.9570327,6.1447687
689,-3.3780673,-9.677173,4.9348974
690,-4.8442693,-11.502598,4.0965123
691,-6.430113,-12.077474,0.9056834
692,-8.238488,-17.153547,-0.19621146
693,-5.8887367,-19.841286,-3.4301112
694,-5.2848477,-20.816061,-5.3273206
695,-4.3244286,-23.403301,-5.3009996
696,-5.272884,-29.178976,-4.2038903
697,-5.9294147,-32.338398,-3.7965121
698,-7.4623165,-30.338299,-4.7117667
699,-5.569893,-24.021248,-3.74387
700,-4.0680976,-20.052153,-2.577369
701,-1.0375878,-14.283656,0.06969096
702,1.5565311,-10.422238,5.069195
703,5.660222,-1.0893325,26.173592
704,4.644469,-1.1395818,22.87
705,1.2882359,-4.9579287,8.271988
706,-1.2173486,-7.3893356,-1.3818551
707,-1.6295122,-7.1617184,-1.8777676
708,-6.341279,-5.645566,10.298709
709,-11.953943,-5.5447683,14.931513
710,-13.928022,-5.2142596,5.510072
711,-9.337991,-5.4873405,0.064905316
712,-4.4392843,-3.3146574,-1.9351953
713,-1.2819548,-1.2329018,-2.9676983
714,0.35653058,-0.4758726,-2.5725834
715,0.7923234,-0.0041874396,-2.2680967
716,0.62721866,0.6978069,-2.7831519
717,-0.089132644,1.2272189,-3.3101711
718,-0.16091733,1.5314065,-2.9318058
719,0.3924229,1.9268204,-2.158027
720,0.5673981,1.8738792,-1.8873389
721,1.1949158,1.687239,-1.8801605
722,0.57457656,1.9292133,-3.2216365
723,-0.010169496,1.7374884,-5.875875
724,0.12412767,2.3721845,-8.144271
725,0.88354975,3.2273195,-8.096415
726,1.422533,3.8551364,-7.3417783
727,2.2082763,3.4836507,-7.246065
728,1.9351953,2.0536401,-5.849554
729,0.24137598,0.99720883,-4.4410787
730,-0.695115,0.5709873,-3.3317065
731,-1.2460624,0.18753748,-1.3387842
732,-1.3923237,0.058325052,-0.3684947
733,-1.4712868,-0.037686955,0.009870393
734,-1.4617156,-0.116650105,0.012263216
735,-1.4617156,-0.22671995,0.014656039
736,-1.4258232,-0.4016951,-0.27517462
737,-1.4665012,-0.5069793,-0.55064833
738,-1.5215361,-0.66759753,-0.75912297
739,-1.468894,-0.61734825,-0.7399804
740,-0.8365906,-0.15254244,-0.06430711
741,-0.6687939,-0.42801616,29.390741
742,-5.459823,-9.6580305,59.930935
743,-15.949658,-18.332012,-22.064516
744,-2.2091734,-13.873885,-13.19881
745,-2.245066,-10.829317,-11.102697
746,0.8668,-13.481163,8.837293
747,1.2547364,-22.97678,11.113166
748,1.6669,-32.659637,-3.6481571
749,4.141378,-65.59774,5.33749
750,7.059126,-73.31848,26.420351
751,-2.297708,-53.29444,18.289839
752,-2.527718,-29.23401,-1.9806589
753,-7.4623165,-16.391733,-7.519146
754,-7.3307114,-10.484451,-3.3029926
755,-9.505787,-8.618349,-1.0369896
756,-11.800803,-5.9066825,4.6956153
757,-11.264213,-3.9852462,7.27777
758,-8.732008,-2.4738796,6.372386
759,-7.860123,-0.73459655,3.993621
760,-6.6622167,0.80787677,2.759822
761,-5.1364927,1.7973089,3.4450665
762,-1.6438692,2.1975086,7.1748786
763,2.181955,-0.9981061,8.899506
764,2.5914268,-7.6049886,10.097412
765,3.2910285,-12.329019,9.762118
766,2.3255246,-15.397514,10.104591
767,1.3193426,-15.936498,10.535598
768,-1.6414764,-12.590136,8.705687
769,-1.0522437,-9.964611,5.838188
770,-0.7262217,-6.821638,3.8641095
771,-1.061815,-3.8033917,2.3407788
772,-2.1948166,1.0331012,1.0926226
773,-2.800799,4.2191443,2.6377878
774,-1.5454643,8.27468,2.9084759
775,-1.4617156,10.993525,3.054438
776,-2.9590242,5.4146585,4.333701
777,-3.4884362,-3.3074791,8.161918
778,-2.2785654,-6.555736,9.620643
779,-1.943271,-7.327122,9.357133
780,-1.9959131,-6.8599234,8.866006
781,-2.0844476,-6.160621,8.55464
782,-2.2713869,-5.3365927,8.69133
783,-2.8462625,-4.8263235,10.150055
784,-3.612863,-4.660919,11.055439
785,-4.508676,-4.744668,11.596815
786,-5.1795635,-5.130511,10.852049
787,-4.9734817,-5.18076,10.72493
788,-5.064708,-4.95075,9.953544
789,-4.5472603,-4.1171503,9.072088
790,-4.0178485,-3.1779675,8.624032
791,-3.7256248,-2.792424,8.516355
792,-3.8476589,-2.562414,8.916255
793,-4.319643,-2.4068804,8.901898
794,-4.7626143,-2.5671997,8.732008
795,-4.286144,-3.4680972,9.333204
796,-4.3268213,-3.8536408,9.675677
797,-4.79402,-4.014259,10.370493
798,-5.6060843,-4.1458645,10.942976
799,-6.3628144,-4.0070806,11.007583
800,-6.760621,-3.92064,11.3213415
801,-6.777371,-3.9110687,10.744073
802,-6.355636,-3.8464625,10.159626
803,-5.8357954,-3.8129628,9.869795
804,-5.4000025,-3.839284,9.936794
805,-5.1149573,-3.932604,9.850653
806,-5.083851,-3.9397824,10.133305
807,-4.9543395,-3.784249,9.932009
808,-4.81077,-3.769892,9.7908325
809,-4.834698,-3.7746778,9.920045
810,-4.8323054,-3.760321,9.824331
811,-4.681258,-3.7411783,9.774082
812,-4.484748,-3.5733814,9.532108
813,-4.4488554,-3.513561,9.198908
814,-4.2020955,-3.5087752,8.95484
815,-4.147061,-3.8273199,8.837293
816,-4.4464626,-4.2367916,9.237492
817,-4.4775696,-4.59392,8.437391
818,-4.4727836,-4.476373,8.4349985
819,-4.3986063,-4.4668016,7.8430743
820,-4.0417767,-4.160221,7.8287177
821,-4.008277,-3.7962132,7.4862447
822,-4.3244286,-3.12054,8.708079
823,-4.5975094,-2.6919255,9.366704
824,-4.6022954,-2.5839493,9.701999
825,-4.154239,-2.8809586,8.844471
826,-3.9098723,-3.3433714,9.100801
827,-3.6439698,-3.8751762,9.378669
828,-3.1480572,-4.38066,9.35474
829,-2.6258237,-5.022535,8.305488
830,-1.9791634,-5.8130636,6.4824557
831,-2.134996,-7.099505,6.6765733
832,-3.4187453,-8.884252,5.3015976
833,-4.4895334,-11.052149,4.999803
834,-5.1460643,-13.799707,4.0558343
835,-5.002196,-16.743776,2.1658037
836,-3.9744785,-17.735601,0.007477571
837,-4.254738,-18.90928,-2.7041886
838,-3.8069808,-20.334805,-3.6792638
839,-3.1145577,-25.271797,-2.716153
840,-4.721936,-29.806494,-2.6635108
841,-5.7137613,-31.008888,-3.4971104
842,-4.5134616,-26.788248,-2.102992
843,-2.324029,-21.86292,-0.104985096
844,-1.1647065,-17.484056,3.2174492
845,-0.8844471,-13.186546,7.934301
846,-0.5802595,-7.964211,15.889539
847,0.69900334,-3.56381,20.932114
848,2.0285153,-4.215256,11.889038
849,1.3097713,-6.1941204,1.0663016
850,0.97926265,-5.712565,0.66161543
851,-0.41724846,-5.8154564,1.5933207
852,-1.2699906,-4.8789654,3.0520453
853,-0.762114,-3.185445,4.4201417
854,-0.15613168,-1.570589,1.4856437
855,-0.29282168,-0.9813564,-0.72323066
856,-0.56350976,-0.62931234,-1.8107685
857,-0.78634137,0.09661021,-3.0972097
858,-1.998306,0.50368917,-4.1461635
859,-2.6330023,1.0833504,-4.8098726
860,-2.8965118,1.6079768,-4.397709
861,-3.0212376,2.434398,-4.239783
862,-3.4692938,3.0717862,-5.619544
863,-3.095415,3.4501512,-7.2149587
864,-3.7615173,4.403691,-6.855736
865,-4.9543395,4.945067,-5.4999027
866,-6.396613,5.112864,-4.912764
867,-2.8175488,3.2826536,-4.409673
868,-2.8773692,1.7590238,-3.9308095
869,-2.39372,0.51565325,-3.566502
870,-2.1804597,0.034396827,-2.9389844
871,-1.5936198,-0.6149554,-2.0431714
872,-1.483251,-0.7106683,-1.57358
873,-1.4784653,-0.7704889,-1.4129617
874,-1.753939,-0.76331043,-1.2813566
875,-1.6510476,-0.5910272,-0.6056832
876,-1.5215361,-0.46869412,-0.32303107
877,-1.4736797,-0.4447659,-0.0044865427
878,-1.6438692,-0.39451665,0.6735796
879,-0.5300102,-1.340878,13.072588
880,1.7386848,-2.5600212,19.14288
881,3.4298122,-3.769892,19.964516
882,5.7343993,-6.7689962,31.093832
883,10.053444,-16.87568,56.833427
884,-14.344672,-31.5048,-4.2182474
885,-5.7759748,-13.934005,-39.841694
886,0.31106696,-8.793025,-23.408386
887,-0.4435695,-9.18126,-14.708082
888,-2.053341,-16.446768,0.8650054
889,-9.656834,-37.929527,7.5556364
890,-4.796413,-49.013683,11.079367
891,-2.3670998,-56.866028,38.237305
892,-7.0337024,-44.931526,-8.448758
893,0.104985096,-26.335405,-10.156635
894,-2.3742783,-15.984354,4.0151563
895,-6.50429,-11.413764,3.4857445
896,-7.2900333,-7.8493557,3.8521454
897,-5.0045886,-5.3676996,3.95055
898,-1.3755739,-4.0357943,3.6320057
899,1.0725827,-3.4510484,4.0558343
900,2.4164517,-1.6642082,5.282455
901,3.2671003,0.7289136,5.988936
902,2.6153553,1.1291132,5.258527
903,2.335096,-1.1922239,8.9979105
904,1.7075781,-4.9770713,11.479567
905,0.12173485,-6.574878,11.615957
906,-1.061815,-5.9880385,10.756037
907,-0.3502494,-5.2286167,9.186943
908,0.3182454,-3.417549,8.147262
909,0.2748755,-0.60059845,6.1328044
910,-0.42203408,-0.0065802624,4.8439703
911,-1.7012969,-0.66759753,4.3743787
912,-3.423531,-0.7585248,6.2934227
913,-5.510072,-1.9133608,8.19781
914,-5.4789658,-2.3204398,8.073085
915,-4.4967117,-2.481058,6.889834
916,-3.2656047,-2.5145576,6.9329047
917,-2.024627,-2.8163524,9.098409
918,-1.7611175,-3.8464625,10.820643
919,-1.8400806,-4.3375893,10.746466
920,-2.5492535,-3.7770705,10.301102
921,-4.5687957,-2.9338996,10.162019
922,-6.058627,-2.3802602,9.4432745
923,-6.889834,-1.9875383,9.2997055
924,-6.619146,-2.1984057,9.735498
925,-6.2527447,-2.5648067,9.776475
926,-5.435895,-2.603092,9.771689
927,-5.042874,-2.5145576,10.423136
928,-5.4095736,-2.615056,12.514462
929,-5.8334026,-2.6246274,11.481959
930,-6.142675,-2.3901308,10.871191
931,-6.686444,-2.1242282,10.995618
932,-6.7558355,-2.0880368,11.798111
933,-5.9030933,-2.006681,11.393425
934,-6.096912,-2.1337996,11.254342
935,-6.724729,-2.1433709,10.614861
936,-6.969096,-2.586342,12.028121
937,-6.547361,-2.8307092,12.11187
938,-6.7893353,-2.6895328,11.901301
939,-7.024131,-2.6751757,11.635399
940,-6.760621,-2.414059,11.076974
941,-6.573682,-2.3778675,11.374283
942,-5.895915,-2.4092734,11.275878
943,-5.4550376,-2.3949163,11.204093
944,-4.971089,-2.1314068,10.885549
945,-5.009374,-2.140978,10.638788
946,-5.1341,-2.1864417,10.363315
947,-5.1963134,-2.3204398,10.34178
948,-4.820341,-2.399702,10.590932
949,-4.6764727,-2.7565317,10.578968
950,-4.374678,-2.885744,10.28166
951,-4.170989,-3.1277182,10.600503
952,-3.979264,-3.2213376,10.86162
953,-4.18056,-3.0152557,10.095019
954,-4.115954,-2.806781,10.447063
955,-3.7208393,-2.7493532,10.097412
956,-3.5841491,-2.5193431,9.4432745
957,-3.7734814,-2.1314068,8.933005
958,-4.1350965,-2.289333,8.794222
959,-4.4368916,-2.6341987,9.721141
960,-4.247559,-2.2917259,10.102198
961,-3.9601214,-2.0425732,9.658928
962,-3.5673995,-1.96361,9.290133
963,-3.2584262,-2.097608,9.186943
964,-3.0595229,-2.4308088,9.050552
965,-3.1049864,-2.656033,9.021839
966,-2.9279177,-3.077469,9.44806
967,-2.5612175,-3.9565322,9.285348
968,-2.120639,-4.6298127,8.947362
969,-1.6965113,-6.10768,7.9654074
970,-1.8161523,-6.8671017,7.1916285
971,-2.2115662,-7.880462,6.8659053
972,-2.7003005,-8.896215,4.930112
973,-2.6835506,-10.366904,3.828217
974,-4.4057846,-12.731312,3.313162
975,-6.84437,-16.892431,-0.85483587
976,-7.4623165,-20.025532,-4.2517467
977,-6.0323057,-19.927427,-3.801298
978,-5.1006007,-20.682064,-4.747659
979,-4.1494536,-26.301907,-1.6166508
980,-4.2260237,-28.992037,-1.8634106
981,-4.9926243,-29.16462,-3.1833515
982,-4.482355,-25.48027,-3.7103705
983,-3.2129626,-21.565912,-1.8921245
984,-1.4401802,-13.907683,7.0190463
985,-1.6247265,-9.150154,15.211772
986,-1.7252251,-5.8010993,18.89612
987,-1.2675978,-3.4462628,15.879968
988,-0.69272214,-3.5853457,9.26142
989,-0.2952145,-3.2333016,2.714358
990,0.63918275,-1.9420747,0.03619144
991,0.90508515,-1.2137593,0.44835514
992,-1.3229318,-1.5948163,4.098905
993,-2.3961127,-2.9243283,4.642674
994,-1.509572,-2.2606192,2.611467
995,-0.73579293,-1.747957,0.1055833
996,-1.0809577,-1.5804594,-0.8979067
997,-0.8605189,-1.3983058,-1.9064814
998,-0.53240305,-0.93589276,-2.37368
999,-0.1896312,-0.023330022,-2.2728825
1000,-0.2976073,0.5132605,-1.6334006
1001,-0.07956135,0.9613165,-1.7482561
1002,0.08823533,1.2607185,-2.1675982
1003,0.100199446,1.4979069,-2.6898317
1004,-0.06520442,1.8475581,-2.7520452
1005,-0.0077766734,2.0632114,-2.1269202
1006,-0.2976073,2.298007,-1.9567307
1007,-0.7118647,2.5710878,-2.4454648
1008,-0.6329016,2.652444,-2.9413772
1009,-1.7754744,1.7877376,-2.838486
1010,-1.9839491,1.2056835,-3.1785657
1011,-1.7060826,0.67387867,-3.8300118
1012,-1.5167505,0.2545365,-4.692325
1013,-1.4712868,-0.08315059,-4.476971
1014,-1.5598212,-0.6412765,-2.7233312
1015,-1.9648064,-0.9095717,-1.5855441
1016,-2.2019951,-1.1228321,-0.7256235
1017,-2.542075,-1.2424731,-0.48364928
1018,-2.6018956,-1.2424731,-0.31106696
1019,-2.5061827,-1.2879368,-0.05712864
1020,-2.2402802,-1.0725827,0.10079765
1021,-1.7419748,-0.6987042,0.4531408
1022,-1.1240284,-0.44955155,0.9825528
1023,-1.4042878,-1.0989038,5.4933224
1024,-7.8314095,-5.7412786,25.907688
1025,-9.445967,-7.214659,5.078766
1026,-3.2368908,-5.99761,-11.287244
1027,-3.1986058,-9.3200445,-9.339785
1028,-5.3593245,-17.10569,-4.2014976
1029,-5.665905,-62.71349,77.72217
1030,-5.067101,-77.61838,52.17191
1031,-7.508079,-77.65906,-8.649755
1032,3.0705895,-39.1059,-30.379276
1033,4.5966125,-16.305592,-24.163023
1034,-0.41964126,-5.9784675,-9.05474
1035,-4.755436,-2.5671997,-1.9543378
1036,-6.1307106,0.27846473,4.321737
1037,-6.619146,2.746063,6.0490556
1038,-6.128019,2.8489544,5.7807603
1039,-4.607081,2.5734808,6.695716
1040,-2.053341,2.4008985,9.498609
1041,-1.7156538,0.24975087,7.9558363
1042,-0.8102696,-0.86889374,7.7162547
1043,0.5096712,-0.43280178,9.079267
1044,3.0418758,-0.3275176,6.017949
1045,2.6943183,-4.2535415,9.136694
1046,0.8042875,-7.6289167,12.296416
1047,0.100199446,-8.49123,12.2533455
1048,-0.99690974,-7.070791,10.502099
1049,-0.7118647,-5.19751,8.377272
1050,-1.224527,-2.236691,5.9937215
1051,-1.265205,1.7255242,4.3241296
1052,-0.99690974,6.2267227,5.1385865
1053,-2.4320052,5.7954164,7.0863442
1054,-2.527718,-0.53359944,9.117552
1055,-0.7477571,-3.3266218,10.169197
1056,0.10977074,-5.580661,10.629217
1057,-2.4104698,-5.698208,9.800404
1058,-5.205885,-5.183153,9.476774
1059,-6.7462645,-4.002295,8.137691
1060,-5.8357954,-3.242873,7.780861
1061,-3.9457645,-1.7001005,8.049156
1062,-2.3790638,-1.5394822,9.318848
1063,-2.9036903,-1.6761723,10.166804
1064,-3.4426737,-1.992324,9.577572
1065,-4.918447,-2.4164517,9.716355
1066,-4.92084,-2.1864417,9.658928
1067,-4.3986063,-1.6809579,9.42174
1068,-4.592724,-1.4126626,9.824331
1069,-4.5879383,-1.0172487,10.07827
1070,-4.6956153,-0.91435736,10.336994
1071,-4.853841,-0.65084773,10.403993
1072,-4.575974,-0.6795616,10.734502
1073,-4.3674994,-0.49980083,10.514063
1074,-4.518247,-0.6867401,10.686645
1075,-4.7099724,-0.6939186,10.74168
1076,-5.1364927,-0.60777694,10.823036
1077,-5.581857,-0.49980083,10.9070835
1078,-5.7376895,-0.42801616,11.081759
1079,-5.3159547,-0.2748755,10.897512
1080,-5.1364927,-0.24376881,10.993225
1081,-5.0548377,-0.18125631,11.419746
1082,-5.0069814,-0.45673,11.762218
1083,-5.1604214,-0.5096712,11.529816
1084,-5.3593245,-0.57427746,11.654542
1085,-5.577071,-0.6939186,11.857932
1086,-5.4789658,-0.81864446,11.441281
1087,-5.5507503,-1.0510473,11.35484
1088,-5.5914283,-1.1539388,10.962119
1089,-5.7616177,-1.4533406,10.909476
1090,-5.9724855,-1.8340986,10.86162
1091,-5.7544394,-2.0832512,10.739287
1092,-5.5052867,-2.3300111,10.605289
1093,-5.6994042,-2.507379,10.8015
1094,-5.6180487,-2.5504498,10.751251
1095,-5.205885,-2.5313072,10.377672
1096,-4.8035913,-2.6078775,10.090234
1097,-4.458427,-2.6895328,9.991829
1098,-4.4488554,-2.6222346,10.339387
1099,-4.2164526,-2.4858437,9.335598
1100,-4.034598,-2.2606192,9.7908325
1101,-4.0968113,-2.4619155,9.3308115
1102,-3.885944,-2.5432713,9.383454
1103,-3.8739798,-2.6991038,9.836296
1104,-3.842873,-3.0032916,9.939187
1105,-3.6080775,-3.2213376,9.407382
1106,-3.016452,-2.7756743,10.883156
1107,-2.9542387,-2.2821546,10.586146
1108,-2.3913271,-1.7096717,10.791929
1109,-1.3636098,-1.2137593,10.549955
1110,-1.0785648,-1.3046865,10.229017
1111,-1.102493,-1.6163517,10.351351
1112,-1.3564314,-2.1625135,10.622039
1113,-1.591227,-2.4714868,10.1237335
1114,-1.8017955,-3.1468608,10.332209
1115,-2.0916262,-4.3519464,8.120941
1116,-2.149353,-5.580661,7.7593255
1117,-2.2785654,-6.8575306,5.2633123
1118,-2.4942186,-7.947461,4.999803
1119,-3.8787656,-10.558629,3.1552358
1120,-5.459823,-11.8283205,1.8999012
1121,-6.506683,-12.376875,0.12981063
1122,-7.5344005,-14.664413,-3.9714873
1123,-5.9653068,-17.75953,-5.2627144
1124,-6.669694,-22.54338,-6.6041903
1125,-6.101698,-29.207691,-3.2742786
1126,-6.760621,-36.779778,-3.7031922
1127,-7.512865,-38.39912,-5.7777696
1128,-5.994021,-31.133614,-4.0959144
1129,-4.8993044,-24.718456,-1.1638091
1130,-2.606681,-18.674486,3.641577
1131,-0.093918286,-12.551551,8.549854
1132,0.25812575,-7.4252276,9.579965
1133,0.6966105,-3.8321054,14.847764
1134,1.544567,-0.66999036,21.55993
1135,1.3866407,-0.21954148,16.37588
1136,0.53599226,-2.0353947,6.1064835
1137,-0.90119684,-3.6140594,-0.76630145
1138,-0.21834506,-3.9828532,1.3704891
1139,0.21505493,-2.7445676,2.9443684
1140,-7.7234335,-3.6954155,19.150059
1141,-6.216852,-3.5303106,9.826724
1142,-3.5482569,-3.8368912,0.22313072
1143,-1.1742777,-3.336193,-7.1096745
1144,-0.3789633,-1.977967,-7.516753
1145,-0.0077766734,-0.7393822,-5.011169
1146,0.2844468,0.27367908,-4.3091745
1147,0.68225354,0.77677006,-4.682754
1148,0.16959131,1.8475581,-4.8194437
1149,-0.11784652,1.919642,-3.2264223
1150,0.2318047,1.9435701,-2.2441685
1151,0.46181476,2.1565313,-1.8969102
1152,0.2748755,2.8369904,-2.8480573
1153,0.4235296,3.3209388,-4.699803
1154,0.60807604,4.0130625,-6.0676003
1155,0.46181476,4.1425743,-6.0098734
1156,-0.3167499,3.0000014,-6.3885374
1157,-0.98973125,2.1999013,-6.6448684
1158,-1.2532408,1.1123635,-5.743971
1159,-2.0820549,0.10378868,-3.4277184
1160,-2.2402802,-0.2940181,-2.0958135
1161,-2.4152553,-0.48065826,-1.1973087
1162,-2.352743,-0.75613195,-0.5075775
1163,-2.1708884,-0.9550353,-0.2727818
1164,-2.5181468,-1.3839488,-0.12412767
1165,-2.8725836,-1.6953149,-0.19142582
1166,-2.9255247,-1.7527425,-0.0044865427
1167,-2.5755744,-1.6426728,0.48424748
1168,-2.0581267,-1.3456637,1.1333007
1169,1.0007981,-2.3491535,24.932613
1170,-0.97776717,-8.544171,41.05904
1171,-9.512965,-11.888141,-6.1585274
1172,-6.259923,-12.786346,-14.746367
1173,-5.2082777,-13.481163,-10.448858
1174,-8.952447,-21.515663,3.952943
1175,-7.9462647,-46.73302,43.485962
1176,-3.2009985,-77.65906,35.101513
1177,-5.476573,-75.69216,15.398711
1178,1.9830518,-43.664528,-0.2536392
1179,0.34217364,-24.931717,-11.747264
1180,-3.723232,-12.417553,-4.5631127
1181,-8.588439,-8.067402,-1.7195421
1182,-9.177671,-3.2883365,2.0629122
1183,-7.5846496,0.15882361,6.0251274
1184,-5.0886364,1.361217,4.9902315
1185,-3.9864426,0.95653087,3.140879
1186,-2.7529426,0.99003035,3.7396827
1187,-1.468894,0.68345,4.848756
1188,0.19591236,0.44626144,10.164412
1189,1.9016958,1.2822539,13.913366
1190,0.84047896,-2.0138593,7.119844
1191,1.451247,-4.4261236,7.605886
1192,4.2131624,-9.830314,9.366704
1193,2.6703901,-11.056934,10.104591
1194,-2.0988045,-9.3104725,11.067403
1195,-5.313562,-5.6264234,10.066306
1196,-3.9242291,-1.5011971,8.161918
1197,-0.30957142,3.0813572,5.028517
1198,-1.7180467,3.4334013,6.858727
1199,-2.7792635,2.257329,8.595318
1200,-3.694219,-0.34666017,9.134301
1201,-4.5616174,-2.7493532,8.937791
1202,-4.537689,-3.8153558,10.099805
1203,-4.075276,-4.299304,9.987043
1204,-3.4956148,-3.7363925,9.539287
1205,-2.3694925,-2.3778675,8.863613
1206,-2.7338,-0.5240282,9.096016
1207,-3.2321053,-0.030508488,9.850653
1208,-4.0034914,-0.071186475,10.102198
1209,-4.391428,-0.75613195,9.675677
1210,-5.15085,-1.3121641,9.838689
1211,-5.4957156,-1.4940187,9.879367
1212,-6.1378894,-1.4581263,9.836296
1213,-5.4957156,-0.98614204,10.399207
1214,-5.189135,-0.60059845,10.610075
1215,-4.7865424,-0.4758726,10.3681
1216,-5.1341,-0.068793654,9.742677
1217,-5.730511,-0.32512477,10.164412
1218,-5.6946187,-0.27966115,10.071092
1219,-5.529215,-0.29162526,10.506885
1220,-5.677869,-0.07597212,10.396814
1221,-5.581857,0.5300102,10.0830555
1222,-5.5890355,0.75523466,10.622039
1223,-5.486144,0.35533416,10.669895
1224,-5.7759748,0.012562319,10.437492
1225,-5.936593,-0.18843478,11.06501
1226,-5.4813585,-0.389731,11.386247
1227,-5.4813585,-0.42801616,11.489138
1228,-5.6132627,-0.4758726,11.850753
1229,-5.4000025,-0.81864446,11.7717905
1230,-5.447859,-0.9741779,11.606386
1231,-5.689833,-1.1419746,11.081759
1232,-5.838188,-1.2281163,10.887941
1233,-5.840581,-1.2975081,10.784751
1234,-6.3221364,-1.4437693,10.523634
1235,-6.341279,-1.5948163,10.710573
1236,-6.329315,-1.7527425,10.777573
1237,-6.0346985,-1.9037895,10.447063
1238,-5.910272,-2.0090737,10.3441725
1239,-5.7209396,-2.2917259,10.181161
1240,-5.4837513,-2.318047,9.536894
1241,-5.306383,-2.3635106,9.517751
1242,-5.203492,-2.5839493,9.939187
1243,-4.9471607,-2.9072795,9.634999
1244,-4.772186,-3.0343983,10.047163
1245,-4.6094737,-3.2380872,9.747462
1246,-4.075276,-3.266801,9.460024
1247,-3.5578282,-3.1420753,9.49143
1248,-3.3732817,-3.0008986,9.64457
1249,-3.234498,-2.7182465,8.86122
1250,-2.6377878,-1.9947168,9.012267
1251,-2.5707889,-1.4940187,9.979865
1252,-2.9132617,-1.1682956,11.199307
1253,-2.6907291,-1.3241283,10.463814
1254,-2.6907291,-1.5900307,9.819546
1255,-2.9207392,-1.5948163,9.426525
1256,-3.0786655,-1.6833507,9.26142
1257,-3.2416766,-2.1337996,9.009874
1258,-3.4549367,-2.7110682,9.040981
1259,-3.5410783,-3.309872,8.482856
1260,-3.5410783,-4.0740795,7.6827555
1261,-3.5745778,-5.0105705,6.3101726
1262,-3.7280176,-6.203692,5.759225
1263,-4.384249,-7.27448,6.0634127
1264,-5.560322,-9.885648,5.3422756
1265,-6.6574306,-12.628421,3.8931224
1266,-7.8864446,-14.528023,3.0041888
1267,-7.812267,-16.166508,0.60628146
1268,-6.559325,-17.390736,-1.8873389
1269,-5.2226343,-18.087645,-1.7533408
1270,-4.813163,-19.081863,-1.9208384
1271,-4.729115,-21.954147,-2.5268207
1272,-4.3986063,-25.710281,-2.4143581
1273,-4.731508,-28.009783,-2.6491537
1274,-5.023731,-28.908289,-2.2274187
1275,-4.0968113,-24.903002,-0.38524446
1276,-2.3814569,-20.123938,1.3106686
1277,-0.78394854,-15.469299,3.6032917
1278,0.30388847,-11.4353,7.3642106
1279,0.7372885,-7.363014,13.197015
1280,0.4211368,-2.8354948,21.243479
1281,1.6645073,-0.78753775,17.204695
1282,2.3446672,-1.8221345,7.8239317
1283,1.2044871,-3.5327036,3.3107693
1284,-0.39571303,-4.8119664,1.3633107
1285,-1.3325031,-4.941179,3.3035908
1286,-3.560221,-4.5245285,6.722037
1287,-2.0174487,-3.3553355,4.6235313
1288,-2.4607189,-2.7182465,-3.636193
1289,-2.50379,-1.9085752,-2.5435705
1290,-1.4521443,-0.71306115,-1.7482561
1291,-0.77677006,0.5491528,-2.0288146
1292,-0.65682983,0.99720883,-1.532902
1293,-0.939482,1.3710874,-1.1350952
1294,-0.97537434,1.6271194,-1.8107685
1295,-0.93230355,1.7757735,-2.5965116
1296,-0.81984085,1.7087744,-2.9916265
1297,-1.2293127,1.7590238,-3.2862427
1298,-1.3971093,2.1999013,-3.7247276
1299,-0.8916255,3.2153554,-5.1667023
1300,-0.79112697,3.8264225,-8.046165
1301,-1.7012969,2.693122,-7.576574
1302,-2.0748763,1.9220347,-5.8064833
1303,-1.7036897,0.9661021,-6.031409
1304,-1.4353945,0.3481557,-6.2662044
1305,-1.2747762,-0.21475583,-5.00399
1306,-1.7563318,-0.72741807,-3.0729825
1307,-1.5574285,-0.87367934,-1.7796619
1308,-2.2211375,-1.1419746,-0.80937225
1309,-2.364707,-1.2065809,-0.5554339
1310,-2.6186452,-0.9813564,-0.4645067
1311,-2.6668007,-0.9095717,-0.5458627
1312,-2.3072793,-0.6029913,-0.37567315
1313,-1.9360926,-0.2940181,-0.3182454
1314,-1.049851,0.34576288,0.038584266
1315,-0.7501499,0.16360925,0.35712877
1316,-2.0294127,-0.4639085,9.038589
1317,-8.216953,-7.8684983,34.10251
1318,-6.554539,-7.2840514,-11.766406
1319,-4.154239,-9.241081,-13.225131
1320,-7.515258,-19.881964,3.7133617
1321,-6.710372,-49.171608,25.780571
1322,5.9644094,-77.65906,44.851368
1323,-1.224527,-77.65906,29.673393
1324,-1.5669997,-46.95825,4.1518464
1325,-0.25692934,-23.875286,-8.328817
1326,-1.943271,-12.268899,0.22552353
1327,-10.564611,-5.278866,-2.1221347
1328,-10.039985,-2.1047866,-2.8624141
1329,-9.630513,-0.7322037,-3.731906
1330,-7.3378897,1.0187442,-0.29910284
1331,-5.378467,2.2118654,3.679862
1332,-4.8394837,2.99043,10.298709
1333,-5.110172,2.2381866,11.994621
1334,-5.366503,-0.2533401,8.487641
1335,-4.063312,-2.9889345,7.7760754
1336,-3.7471602,-6.9125657,6.9305115
1337,-0.86291164,-10.283155,10.181161
1338,1.5302101,-12.1301155,11.453245
1339,1.7865412,-12.18515,10.284053
1340,1.4416757,-11.047363,7.2490563
1341,0.15284155,-9.131011,6.7387867
1342,-0.4339982,-5.9090757,6.2380886
1343,-0.31196424,-3.712165,6.0155563
1344,-0.06520442,-2.0425732,5.938687
1345,-0.41724846,-0.46630132,6.3915286
1346,-0.831805,0.43429732,6.439385
1347,-0.8748758,0.40558344,7.251449
1348,-1.2077773,-0.75613195,7.1509504
1349,-2.02702,-2.2797618,7.900801
1350,-2.7266214,-2.9315069,8.128119
1351,-2.96381,-3.269194,8.300702
1352,-3.1169505,-3.2476585,8.866006
1353,-3.5865421,-3.4103706,9.04816
1354,-3.112165,-3.3409786,9.069695
1355,-2.7936203,-3.0990045,8.832506
1356,-2.4702902,-2.5600212,8.839685
1357,-2.3718855,-2.179263,8.118548
1358,-3.3206396,-2.44038,7.9295154
1359,-3.9840498,-2.713461,8.983554
1360,-4.2332025,-2.9338996,9.682856
1361,-3.6367912,-3.0559337,9.407382
1362,-3.2488549,-2.5983062,8.293523
1363,-3.4621153,-2.0425732,8.269595
1364,-3.7037904,-2.0617158,8.473284
1365,-3.952943,-2.3515465,8.626425
1366,-3.912265,-3.0726833,8.962018
1367,-4.18056,-3.3194432,9.12473
1368,-4.4727836,-3.0296125,9.373882
1369,-4.254738,-2.8546374,9.556036
1370,-4.2741795,-2.140978,9.105587
1371,-4.1087756,-1.6737795,9.242277
1372,-4.3292146,-1.5011971,9.7812605
1373,-4.415356,-1.5586249,9.896116
1374,-4.2885365,-2.0210378,9.682856
1375,-4.9136615,-2.5528426,9.805189
1376,-5.36411,-2.6536403,10.092627
1377,-5.3330035,-2.588735,9.946365
1378,-5.1125646,-2.3084757,9.400204
1379,-5.1364927,-2.059323,9.673285
1380,-5.2226343,-1.9995024,9.94158
1381,-5.205885,-1.9420747,9.809975
1382,-5.352146,-1.9707886,9.795618
1383,-5.541179,-1.9061823,9.841082
1384,-5.6132627,-1.937289,9.929616
1385,-5.692226,-2.0952153,10.24816
1386,-5.6611195,-2.1577277,10.313066
1387,-5.6324053,-1.9899311,10.470992
1388,-5.5651073,-1.8487546,10.679466
1389,-5.3330035,-1.8005991,10.856834
1390,-5.2633123,-2.07368,11.050653
1391,-5.2106705,-2.1119652,11.0964155
1392,-5.064708,-2.196013,11.35484
1393,-4.9519463,-2.196013,11.141879
1394,-5.0141597,-2.3060827,11.326127
1395,-5.040481,-2.4595225,11.26152
1396,-5.306383,-2.5289145,11.18495
1397,-5.675476,-2.6413772,10.629217
1398,-5.9413786,-2.5815566,10.162019
1399,-5.79751,-2.562414,9.7812605
1400,-5.529215,-2.4092734,9.587143
1401,-5.2633123,-2.30369,9.565608
1402,-5.1604214,-2.3419752,10.066306
1403,-5.093422,-2.4451656,10.348958
1404,-5.1412787,-2.6485555,9.845867
1405,-5.052445,-2.7708886,9.812367
1406,-4.9663033,-3.0391839,9.953544
1407,-4.5472603,-3.170789,9.565608
1408,-4.269394,-3.1998022,9.630214
1409,-3.62722,-3.2285159,9.539287
1410,-3.394817,-3.2572298,9.58475
1411,-3.330211,-3.3338,9.160623
1412,-2.9566314,-3.2883365,9.474381
1413,-2.7194428,-3.6355948,9.754641
1414,-3.1767712,-3.6451662,9.786046
1415,-3.5004005,-3.4872398,9.888938
1416,-3.7328033,-3.161218,9.544072
1417,-4.0034914,-2.684747,9.021839
1418,-4.4129634,-2.8833513,9.122337
1419,-4.623831,-2.7708886,9.35474
1420,-4.3292146,-2.5049863,8.868399
1421,-3.62722,-2.5839493,8.070692
1422,-3.1914272,-2.8642087,7.9390864
1423,-2.757728,-2.955435,7.728219
1424,-2.664408,-3.44387,7.103094
1425,-1.9648064,-4.464409,7.2969127
1426,-2.038984,-5.877969,7.3953176
1427,-1.9384855,-7.300801,5.5914283
1428,-2.405684,-9.480662,4.9495535
1429,-3.3613176,-11.727523,4.592425
1430,-5.6443696,-15.119648,4.618746
1431,-7.9797645,-17.682959,2.3024936
1432,-10.430613,-19.999212,-0.62961143
1433,-10.456934,-21.64996,-2.536392
1434,-8.715259,-20.322842,-1.3268201
1435,-5.392824,-20.325233,-1.0657034
1436,-4.494319,-20.852253,-1.3004991
1437,-3.7950168,-24.545874,-3.717549
1438,-2.7936203,-24.464518,-4.5391846
1439,-2.3913271,-21.41038,-2.998805
1440,-1.5693926,-17.860027,-0.33260235
1441,-0.94666046,-15.174683,0.8530413
1442,0.18873389,-11.413764,3.8377883
1443,1.7386848,-7.1018977,12.212667
1444,3.2333016,-1.0677971,25.974688
1445,3.2599218,-2.9913275,16.227526
1446,2.455036,-6.1701922,6.415457
1447,3.3484561,-6.8479595,2.4963121
1448,2.7496524,-6.6972113,3.1719856
1449,-1.0666007,-6.8910303,5.627321
1450,-6.736693,-7.48774,14.778072
1451,-5.4023952,-5.8636117,1.0782657
1452,-2.1828525,-5.005785,-6.968199
1453,-0.5395815,-4.404588,-5.111667
1454,-0.7262217,-3.2189445,-3.1546376
1455,-0.14656039,-2.1194427,-2.4071796
1456,0.44027936,-0.8545368,-2.0093727
1457,0.24376881,0.13968103,-0.8380861
1458,0.13848461,0.8895318,-1.5209379
1459,0.39960137,1.3686945,-3.4229329
1460,0.44506502,1.6319051,-5.5860443
1461,0.5455636,2.1687946,-6.4292154
1462,0.77796644,2.7029922,-7.0758758
1463,0.5913263,3.181856,-8.084451
1464,-0.081954174,3.5964124,-6.450751
1465,-1.2771691,3.2539396,-6.369395
1466,-2.01027,2.3362923,-7.042376
1467,-1.1958131,1.0737791,-6.558428
1468,-1.1599208,0.64037913,-5.6889358
1469,-1.4808581,-0.025722843,-4.182355
1470,-1.713261,-0.3059822,-2.359323
1471,-1.9408783,-0.38733816,-0.9532407
1472,-2.0509481,-0.35623148,-0.13848461
1473,-2.0006988,-0.40887356,-0.42382872
1474,-2.513361,-0.49262238,-0.095413804
1475,-2.606681,-0.43758744,0.038584266
1476,-2.1565313,-0.32512477,0.17288144
1477,-1.6654046,-0.17168503,0.47228336
1478,-1.2436695,0.070289165,1.8592232
1479,-1.0399805,-0.57906306,45.011684
1480,-3.5578282,-5.0512486,40.85087
1481,-11.563615,-11.054542,7.03101
1482,-12.684652,-8.362018,-19.76262
1483,-0.38374892,-4.0740795,-15.517754
1484,-0.62811595,-6.2180486,-11.962916
1485,-3.9553359,-12.630814,3.612863
1486,-1.576571,-59.676098,78.709206
1487,-13.714762,-77.59445,46.408195
1488,-23.473888,-77.65906,-19.707586
1489,-7.6683984,-43.101616,-20.780767
1490,-0.65682983,-19.498514,-22.189243
1491,0.23659034,-10.388439,-15.58236
1492,0.13130614,-0.0017946169,1.9381863
1493,-0.5491528,3.5509489,9.917651
1494,0.18394823,4.6695933,7.778468
1495,0.37328035,4.1904306,7.893623
1496,0.08344969,3.9221354,4.8439703
1497,0.49292147,2.4681966,3.7013974
1498,-0.43878385,3.0598218,12.32513
1499,2.4188447,1.3301103,8.159525
1500,2.2968106,-5.698208,3.354139
1501,6.963114,-9.396914,11.304591
1502,5.116453,-11.703594,16.33281
1503,1.7003996,-6.5365934,13.232907
1504,0.20309082,-1.5634105,8.437391
1505,0.1576272,3.4621153,3.7420754
1506,-0.85094756,2.8728826,4.6546383
1507,-2.1158533,-1.0411769,8.132905
1508,-2.9542387,-4.1985064,9.71157
1509,-4.738686,-7.372586,11.946765
1510,-5.421538,-7.8661056,11.263913
1511,-5.854938,-7.300801,10.617253
1512,-6.154639,-5.226224,9.290133
1513,-5.459823,-2.9937203,7.6492558
1514,-3.4019957,-1.8678972,7.5843506
1515,-1.5478572,-1.6115661,8.937791
1516,-0.93708915,-1.6139588,9.922438
1517,-1.5888343,-2.5983062,9.774082
1518,-3.1049864,-3.661916,10.183554
1519,-4.9136615,-3.5566318,9.654142
1520,-5.8911295,-2.7565317,9.314062
1521,-5.8597236,-2.044966,8.976375
1522,-5.445466,-1.3094722,9.318848
1523,-5.011767,-0.8258229,9.266206
1524,-4.6094737,-0.634098,9.098409
1525,-4.698008,-0.68195444,9.000303
1526,-4.5975094,-1.0028918,9.318848
1527,-4.1901317,-1.448555,9.29492
1528,-4.18056,-1.7096717,9.61825
1529,-4.393821,-1.977967,10.336994
1530,-4.482355,-1.8221345,9.793225
1531,-4.9471607,-1.1994023,9.026625
1532,-5.445466,-1.0462617,9.084052
1533,-5.0766726,-1.0172487,9.220443
1534,-4.4656053,-1.1204392,9.568001
1535,-4.19731,-1.3911272,10.150055
1536,-4.3483567,-1.6283158,10.4351
1537,-4.456034,-1.7312071,10.20509
1538,-4.621438,-1.8894325,10.209875
1539,-4.4775696,-2.0162523,10.559826
1540,-4.3531427,-1.9803598,10.667502
1541,-4.386642,-1.9253249,10.89512
1542,-4.755436,-1.977967,10.974083
1543,-4.8083773,-2.140978,11.081759
1544,-4.8299127,-2.4308088,11.453245
1545,-4.765007,-2.6895328,11.67847
1546,-4.9806604,-2.7637103,11.318949
1547,-5.296812,-2.6823542,11.239985
1548,-5.2680984,-2.4643083,10.250553
1549,-5.651548,-2.4092734,10.181161
1550,-5.5052867,-2.6823542,10.181161
1551,-5.433502,-2.9506495,10.3848505
1552,-5.4143596,-3.0822546,10.301102
1553,-5.732904,-2.969792,10.394422
1554,-5.881558,-2.9482565,10.056734
1555,-5.838188,-2.8905299,9.932009
1556,-5.488537,-3.036791,10.013365
1557,-5.1388855,-3.0607193,9.735498
1558,-4.8059845,-3.0678978,9.716355
1559,-4.5158544,-2.972185,9.476774
1560,-4.252345,-2.8235307,9.400204
1561,-3.938586,-2.8307092,9.220443
1562,-3.5913277,-2.833102,9.26142
1563,-3.871587,-2.8283165,9.661321
1564,-3.5913277,-2.8378878,8.794222
1565,-3.737589,-2.9745777,9.608679
1566,-3.7423747,-3.10379,9.556036
1567,-3.739982,-3.2787652,9.359526
1568,-3.2991042,-3.2117662,8.923434
1569,-3.124129,-3.3074791,8.604889
1570,-3.0667014,-3.3050864,8.779864
1571,-2.774478,-3.391228,8.178668
1572,-2.39372,-3.4776685,8.621639
1573,-2.1900308,-3.4342988,8.362915
1574,-2.0198414,-3.1492536,8.638389
1575,-1.9887347,-3.0080771,8.638389
1576,-1.9767706,-2.8498518,8.983554
1577,-2.2067807,-2.5671997,10.41835
1578,-2.2905295,-2.4116662,10.356136
1579,-2.1326032,-2.4690938,9.608679
1580,-2.0988045,-2.5695925,9.189336
1581,-1.8448663,-2.6536403,9.177372
1582,-1.8233309,-3.0080771,9.898509
1583,-2.0318055,-3.5494533,10.382458
1584,-1.820938,-4.162614,10.147662
1585,-1.2556337,-5.1592245,9.94158
1586,-1.3899308,-6.146264,7.768897
1587,-1.4808581,-6.795317,6.4202423
1588,-1.9504496,-7.159325,5.577071
1589,-2.2809582,-8.115258,3.7660038
1590,-3.0643084,-9.796814,3.1193435
1591,-5.5627146,-11.3778715,1.5574285
1592,-7.2469625,-12.899109,-2.400001
1593,-10.047163,-17.287546,-4.2517467
1594,-9.249456,-22.212872,-5.633901
1595,-10.490434,-31.287054,-4.534399
1596,-11.06531,-40.073498,-3.1977084
1597,-8.542975,-43.619064,-4.08395
1598,-3.382853,-33.907494,-2.6108687
1599,-1.7515461,-26.103003,-2.1245275
1600,0.15523437,-18.212372,-0.2416751
1601,0.14087744,-13.493127,3.8763726
1602,0.03798606,-10.283155,5.0189457
1603,0.35653058,-7.475776,5.840581
1604,1.6334006,-3.551846,11.0195465
1605,3.4393835,-0.90478605,15.38914
1606,3.4465618,-2.1457636,8.2049885
1607,1.788934,-4.342375,3.4187453
1608,0.9912268,-4.0740795,4.0510488
1609,0.2318047,-2.5193431,10.229017
1610,-6.7151575,-3.4585261,22.630718
1611,-4.645366,-2.3949163,10.502099
1612,-3.8404803,-2.4284158,1.5215361
1613,-3.560221,-3.4127634,-8.479864
1614,-1.9671993,-2.929114,-6.7812595
1615,-1.6247265,-1.910968,-5.185845
1616,-0.25214368,0.08943175,-3.9954157
1617,0.58893347,0.9349955,-3.566502
1618,1.1063814,1.6633109,-2.754438
1619,0.90508515,1.9220347,-2.0527427
1620,0.57457656,2.1038892,-1.7051853
1621,0.6966105,2.1565313,-1.4344971
1622,0.68225354,2.2956142,-1.4874383
1623,0.49292147,2.5663023,-1.4898312
1624,0.34456646,2.844169,-2.0599213
1625,-0.6089734,2.4152553,-3.1139596
1626,-1.3133606,2.012962,-4.0624146
1627,-1.8400806,1.2080764,-4.031308
1628,-1.1096715,0.91106725,-3.6984065
1629,-0.7815557,0.43429732,-4.8242297
1630,-0.80548394,-0.016151553,-5.1332026
1631,-1.2723835,-0.6125626,-4.4482574
1632,-1.5478572,-0.76331043,-3.418147
1633,-1.8161523,-0.80907315,-1.9040886
1634,-2.3001008,-0.8353942,-1.1039885
1635,-2.5325036,-0.88325065,-0.9385847
1636,-2.6282165,-0.8353942,-0.71365935
1637,-2.2737796,-0.43758744,-0.23449662
1638,-1.5864414,0.07986046,-0.04516453
1639,-0.97537434,0.32662028,0.37627137
1640,-0.8150552,-0.123828575,0.26859435
1641,-1.2723835,-0.6652047,0.43878385
1642,-5.488537,-3.6690943,17.255241
1643,-3.6846478,-2.7230322,-1.939981
1644,-3.0403802,-3.7145581,-3.4564323
1645,-6.628717,-9.650852,7.26102
1646,-20.664118,-41.050964,76.55088
1647,-14.687145,-77.56783,38.390446
1648,-1.2412767,-77.65906,-18.871294
1649,12.226128,-62.617775,-20.452353
1650,7.1883383,-13.689637,-21.19981
1651,-0.2545365,-2.5552354,-11.2704935
1652,-1.9935204,0.13968103,-4.249354
1653,-4.089633,3.4740794,2.7358935
1654,-5.3976097,5.445765,5.0548377
1655,-5.110172,5.541478,6.95444
1656,-4.813163,5.256433,8.130512
1657,-2.4631119,4.305286,8.34138
1658,-2.364707,3.2249267,7.2993054
1659,-2.5707889,2.096711,10.451849
1660,-4.075276,0.014955142,5.2250276
1661,-6.942775,-5.968896,6.24766
1662,-1.2867404,-12.434303,11.180164
1663,3.013162,-15.026328,13.606786
1664,3.8491542,-13.893327,12.423236
1665,3.9281175,-10.482059,8.6599245
1666,2.9219356,-6.754639,6.0658054
1667,0.46660042,-3.7193437,5.2680984
1668,-1.753939,-2.0497518,5.8860445
1669,-2.6258237,-1.2065809,6.913762
1670,-2.5707889,-1.16351,6.4465632
1671,-2.2905295,-1.4772689,6.0155563
1672,-1.8810577,-2.5815566,7.0549383
1673,-1.8017955,-4.0405803,8.686245
1674,-2.6668007,-5.391628,8.803793
1675,-3.641577,-5.276473,8.839685
1676,-4.3818564,-4.742275,9.153444
1677,-4.44407,-3.539882,8.312666
1678,-4.631009,-1.7455641,8.497212
1679,-3.62722,-1.2568301,8.233703
1680,-2.3431716,-1.9229321,7.3642106
1681,-1.576571,-2.5648067,8.8014
1682,-1.7180467,-3.0870404,9.7043915
1683,-2.2354946,-3.501597,9.50818
1684,-3.251248,-3.5733814,9.103194
1685,-4.099204,-3.1926236,8.791828
1686,-4.374678,-2.5002005,8.904291
1687,-4.281358,-2.059323,8.758329
1688,-4.0298123,-2.059323,8.037192
1689,-3.670291,-2.274976,9.043374
1690,-4.578367,-2.4475584,8.458927
1691,-4.721936,-1.992324,8.863613
1692,-4.5616174,-1.434198,8.995518
1693,-4.0537405,-1.1778669,9.613464
1694,-3.9194436,-1.3070793,9.21805
1695,-3.7567315,-1.1300105,9.723534
1696,-3.979264,-1.2975081,9.546465
1697,-4.099204,-1.4461622,9.709177
1698,-4.3411784,-1.3289139,9.311669
1699,-4.5592246,-1.230509,9.706784
1700,-4.6429734,-1.0244272,9.474381
1701,-4.8323054,-0.8497511,9.6015
1702,-5.0452666,-0.8545368,9.759726
1703,-4.961518,-0.63888365,9.359526
1704,-5.069494,-0.4351946,9.3308115
1705,-5.069494,-0.53599226,9.510572
1706,-5.0572305,-0.7609176,10.0061865
1707,-5.323133,-0.878465,11.137094
1708,-5.601299,-0.959821,11.283056
1709,-5.799903,-0.9023932,11.345269
1710,-6.0370917,-0.74895346,11.594422
1711,-5.9653068,-0.6771688,11.6135645
1712,-5.9676995,-0.9454641,11.306984
1713,-5.9150577,-1.0654043,11.033903
1714,-5.881558,-1.1730813,10.995618
1715,-5.7783675,-1.2257234,10.86162
1716,-5.6324053,-1.462912,11.017154
1717,-5.7113686,-1.7718852,11.244771
1718,-6.209674,-1.8942182,10.921441
1719,-6.696015,-2.044966,10.779965
1720,-6.96431,-2.0712872,10.653146
1721,-7.0169525,-2.0162523,10.47817
1722,-6.372386,-2.1457636,10.420743
1723,-5.7520466,-2.224727,10.358529
1724,-5.2633123,-2.263012,9.951151
1725,-5.2848477,-2.2390838,10.133305
1726,-5.2633123,-2.2558336,10.231411
1727,-5.337789,-2.3754747,10.0830555
1728,-5.325825,-2.44038,10.260124
1729,-4.7099724,-2.2342982,9.404989
1730,-4.6836514,-2.2007985,9.359526
1731,-4.573581,-1.9085752,9.309277
1732,-4.5472603,-1.8631115,9.213264
1733,-4.305286,-1.7982062,8.389236
1734,-3.99392,-1.5804594,8.791828
1735,-4.470391,-1.8317057,8.743972
1736,-4.3818564,-2.1361923,8.336594
1737,-4.1350965,-2.5049863,8.7679
1738,-4.470391,-2.7206392,9.112766
1739,-4.4129634,-3.0894332,8.688937
1740,-4.187739,-3.2476585,8.41795
1741,-3.5913277,-3.1564322,8.796615
1742,-3.7013974,-2.984149,8.873184
1743,-3.7037904,-2.6413772,10.054341
1744,-3.600899,-2.5049863,9.697213
1745,-3.5434713,-2.3925235,9.6015
1746,-3.5075788,-2.5911279,9.314062
1747,-3.275176,-2.996113,8.791828
1748,-3.2249267,-3.7794633,9.438489
1749,-3.370889,-4.847859,9.579965
1750,-2.434398,-6.2204413,9.642178
1751,-2.0916262,-7.710273,7.8406816
1752,-1.5984055,-8.7164545,6.451349
1753,-1.4114662,-9.4280205,5.9434724
1754,-1.8714864,-10.369297,6.463313
1755,-2.949453,-10.747961,4.822435
1756,-3.6104703,-11.327622,2.4939194
1757,-5.306383,-12.635599,0.06011967
1758,-4.944768,-13.3687,-3.8706896
1759,-5.560322,-14.964114,-4.7165527
1760,-5.9246287,-18.13311,-5.092525
1761,-8.04467,-23.906391,-5.2025948
1762,-8.535498,-30.290443,-6.721439
1763,-6.456434,-33.792637,-5.011169
1764,-2.7529426,-28.208687,-2.7855446
1765,-2.1900308,-22.948067,-1.4392828
1766,-1.9791634,-18.923637,-0.9409775
1767,-0.27128628,-13.857135,1.657927
1768,2.2680967,-8.728418,11.395818
1769,3.484847,-3.295515,25.548466
1770,3.7555351,-3.2093735,19.449461
1771,2.1218355,-6.163014,6.235696
1772,0.6415756,-7.799106,1.8544376
1773,1.422533,-6.32094,2.9970105
1774,0.4881358,-4.749454,7.615457
1775,-4.822734,-4.136293,14.26541
1776,-4.875376,-2.9048867,5.1625147
1777,-4.0154557,-2.588735,-3.2862427
1778,-3.0403802,-2.7158537,-3.9834516
1779,-2.5492535,-1.9612173,-4.3115673
1780,-2.5492535,-1.9612173,-4.3115673
1781,-0.76689965,0.034396827,-2.998805
1782,-0.65682983,1.0546366,-2.4861426
1783,-1.0208379,1.5672989,-2.4239295
1784,-0.8844471,1.9579271,-2.428715
1785,-0.40767714,2.4320052,-2.836093
1786,-0.36221352,2.8537402,-3.377469
1787,-0.6879365,3.0143583,-4.6396832
1788,-0.9825528,3.5772698,-6.352645
1789,-1.3516457,3.5270207,-5.8304114
1790,-1.3588241,3.739982,-6.2494545
1791,-0.98973125,3.629912,-7.0208406
1792,-0.10109676,2.746063,-7.2939215
1793,-0.44117668,2.0057836,-6.0747786
1794,-1.1383854,0.99720883,-4.0672
1795,-1.698904,0.52283174,-2.23699
1796,-1.6486548,0.40797627,-1.044168
1797,-1.4330016,0.15643078,-0.07148558
1798,-1.2340983,-0.018544376,0.3909274
1799,-1.1001002,-0.20039889,0.29252258
1800,-1.2053844,-0.36580276,0.09601201
1801,-1.2077773,-0.4758726,0.10079765
1802,-1.3229318,-0.57906306,0.048155557
1803,-1.3540385,-0.7851449,-0.0212363
1804,-1.3106686,-3.9828532,50.523853
1805,-5.486144,-9.3104725,46.53771
1806,-8.59801,-9.269794,-9.445069
1807,-8.19781,-7.8756766,-25.025335
1808,-5.5076795,-10.616056,-9.227023
1809,-14.189139,-28.136902,8.873184
1810,-13.012768,-54.413086,23.461926
1811,6.309275,-77.65906,60.96583
1812,-8.207381,-77.34291,13.721642
1813,-2.0724835,-40.46652,-16.490437
1814,4.158128,-19.457836,-24.354748
1815,1.4153546,-7.791928,-14.4948225
1816,0.35653058,-2.4164517,-2.2971098
1817,-1.7730815,0.051146585,6.554539
1818,-4.7099724,1.3133606,10.164412
1819,-5.181957,1.2367902,8.868399
1820,-4.3890347,-0.212363,7.0764737
1821,-3.0595229,-1.2376875,4.0845485
1822,-0.6041877,-1.3863416,3.4211383
1823,-0.6089734,-3.4247274,2.4125633
1824,0.011365907,-6.2587266,5.8334026
1825,1.2786646,-8.503195,10.068699
1826,1.4129617,-10.580164,10.41835
1827,1.8511474,-12.25215,9.596714
1828,0.9170493,-12.599707,9.522537
1829,-1.1958131,-11.581561,8.889935
1830,-0.89401835,-9.226724,7.5580297
1831,0.7085746,-5.7723856,6.257231
1832,0.9720842,-3.4561331,4.853542
1833,1.2690933,-1.6402799,4.542176
1834,1.096511,-0.878465,6.013163
1835,0.54317075,-1.3241283,7.835896
1836,-0.47946185,-2.6413772,8.367701
1837,-2.3694925,-4.9866424,7.50778
1838,-3.8835511,-6.136693,7.3160553
1839,-4.295715,-6.1677995,7.5029945
1840,-3.8524444,-5.9952173,8.430213
1841,-3.409174,-5.496912,7.8000035
1842,-3.1480572,-4.450052,7.4240313
1843,-3.0978081,-3.757928,7.704291
1844,-3.1695926,-2.9913275,7.960622
1845,-2.568396,-2.737389,7.9462647
1846,-1.8619151,-2.5983062,8.099405
1847,-2.4990041,-2.6536403,8.298309
1848,-2.5325036,-2.751746,8.319844
1849,-3.0786655,-2.900101,8.46132
1850,-3.2823544,-2.9458637,8.319844
1851,-3.5841491,-2.4690938,8.78465
1852,-3.4283166,-2.5767708,8.846864
1853,-3.289533,-2.5983062,9.019445
1854,-2.96381,-2.5025933,8.458927
1855,-2.800799,-2.5408785,8.530712
1856,-2.2211375,-2.5839493,8.652746
1857,-2.5755744,-2.6943183,9.512965
1858,-2.6090739,-2.7684958,9.735498
1859,-2.879762,-2.5552354,9.615857
1860,-3.1193435,-2.437987,9.148658
1861,-4.034598,-1.6977077,8.8492565
1862,-4.549653,-1.7503498,8.937791
1863,-4.616652,-1.7718852,8.626425
1864,-5.0309095,-1.7910278,9.045767
1865,-4.8323054,-1.462912,9.203693
1866,-4.494319,-1.2951152,8.794222
1867,-4.032205,-1.1395818,9.081659
1868,-3.888337,-1.1874382,9.594321
1869,-4.2164526,-1.3217354,9.994222
1870,-4.721936,-1.4389837,9.927223
1871,-4.9375896,-1.4054842,10.068699
1872,-4.9567323,-1.3600205,10.313066
1873,-4.9782677,-1.2807583,10.447063
1874,-4.79402,-1.1970096,10.245768
1875,-5.0548377,-1.2137593,10.178768
1876,-5.419145,-1.3121641,10.852049
1877,-5.378467,-1.2927225,10.892727
1878,-5.3183475,-1.3863416,11.146666
1879,-5.203492,-1.5828521,11.800504
1880,-5.1532426,-1.50359,11.685649
1881,-5.325825,-1.6905292,11.66172
1882,-5.536393,-1.8388842,11.182557
1883,-5.9964137,-1.8918254,10.77518
1884,-6.288637,-2.184049,10.779965
1885,-6.2934227,-2.3682961,10.957334
1886,-6.207281,-2.5097718,10.880763
1887,-5.8624153,-2.5983062,10.847263
1888,-5.639584,-2.521736,10.746466
1889,-5.4981084,-2.5671997,10.679466
1890,-5.313562,-2.4116662,10.403993
1891,-5.388038,-2.4978077,10.470992
1892,-5.368896,-2.5552354,10.514063
1893,-5.2513485,-2.5504498,10.183554
1894,-5.091029,-2.3829522,10.032806
1895,-4.901697,-2.3252254,10.24816
1896,-4.6764727,-2.2677977,10.286446
1897,-4.0441694,-1.8942182,9.560822
1898,-3.8356948,-1.585245,8.985947
1899,-3.6463625,-1.244866,8.523534
1900,-3.4426737,-1.0797613,8.748757
1901,-3.588935,-1.4413766,9.381062
1902,-3.7974095,-1.9851454,9.369097
1903,-3.8380876,-2.5193431,8.8014
1904,-3.8668015,-2.8522446,8.557033
1905,-4.1757746,-2.8713872,8.437391
1906,-4.1494536,-2.8642087,8.276773
1907,-4.384249,-2.7302105,8.727222
1908,-4.223631,-2.370689,9.304491
1909,-3.8763726,-1.9731814,9.9344015
1910,-3.263212,-1.9564316,9.88176
1911,-2.8558338,-2.4020948,9.273384
1912,-2.7003005,-3.2165518,9.129516
1913,-2.216352,-4.1147575,8.976375
1914,-1.820938,-5.1664033,9.352347
1915,-1.2197413,-6.263512,7.6277204
1916,-0.8964112,-7.152147,6.166304
1917,-1.4617156,-8.069795,5.0213385
1918,-2.8893332,-9.777672,5.4355955
1919,-3.6104703,-11.200503,5.6392846
1920,-4.106383,-13.473985,3.8234315
1921,-4.616652,-15.057435,1.1958131
1922,-3.8476589,-16.633707,-1.1231312
1923,-5.3904314,-17.848064,-2.8624141
1924,-5.716154,-23.0704,-4.4721856
1925,-7.213463,-31.069008,-4.043272
1926,-7.428817,-34.971104,-3.5760734
1927,-5.512465,-33.12414,-1.9543378
1928,-4.343571,-27.360731,-1.2550355
1929,-3.5913277,-21.85335,-0.43818563
1930,-2.501397,-17.960825,1.5526428
1931,-0.8389834,-12.78874,5.2848477
1932,-0.3167499,-9.233903,8.58814
1933,0.92662054,-4.6585264,15.853646
1934,1.9232312,-1.6067804,20.599213
1935,2.2082763,-1.9420747,10.583754
1936,1.6573287,-3.1540394,2.4987051
1937,1.1470593,-3.2165518,2.0916262
1938,0.47856453,-2.725425,6.250053
1939,-4.362714,-2.914458,12.821043
1940,-4.647759,-2.6656044,5.6057854
1941,-3.3589249,-2.5289145,-0.25842485
1942,-2.650051,-2.5337,-3.3484561
1943,-1.2436695,-1.8101703,-4.56072
1944,-0.5180461,-0.7082755,-4.1703906
1945,0.06909275,0.44626144,-2.984448
1946,0.054735817,0.9589237,-2.1867409
1947,0.06909275,1.1147562,-1.8370895
1948,0.25094727,1.3636098,-1.6908283
1949,0.1576272,1.2894323,-1.166202
1950,0.11934203,1.2750753,-1.166202
1951,0.2318047,1.4979069,-1.5616158
1952,0.097806625,1.8714864,-2.5196424
1953,0.40917268,2.5710878,-4.6755753
1954,0.21026929,2.7221348,-7.059126
1955,-0.51565325,2.3315065,-7.7826557
1956,-0.8772686,1.6271194,-6.5898337
1957,-1.6295122,1.5146568,-6.7908306
1958,-1.495215,1.3109677,-6.5440707
1959,-1.2604194,0.78873414,-4.4985065
1960,-1.6893328,0.29282168,-2.7065816
1961,-2.0174487,-0.047258247,-1.4703895
1962,-2.1924238,-0.25812575,-0.7830512
1963,-2.4942186,-0.67477596,-0.4142574
1964,-2.6042883,-0.8712866,-0.1265205
1965,-2.6739793,-0.84735835,0.06969096
1966,-2.6620152,-0.7082755,0.017048862
1967,-2.2642083,-0.349053,-0.059521463
1968,-1.9528424,-0.52163535,0.44835514
1969,-1.7922242,-0.9669995,0.61824554
1970,-1.4569299,-1.1659029,6.7842503
1971,-5.272884,-6.136693,13.824832
1972,-6.7175503,-5.465805,-11.737693
1973,-3.9601214,-7.475776,-5.2603216
1974,-7.7090764,-15.610775,4.6836514
1975,-16.364216,-46.002613,25.057339
1976,-10.720444,-77.65906,54.1744
1977,2.6201408,-77.65906,33.772
1978,-1.9624137,-57.481583,-1.9471594
1979,2.9004002,-27.540491,-23.535505
1980,1.1135598,-12.386446,-23.521147
1981,-2.2522442,-3.8177485,-8.362317
1982,-4.698008,-0.74895346,2.4364917
1983,-5.787939,1.1817553,6.492027
1984,-6.087341,2.1038892,3.9218364
1985,-5.0309095,1.9842482,1.2053844
1986,-2.6596224,1.8738792,3.3469608
1987,-0.39810586,2.4729822,7.5723863
1988,1.6139588,1.7446668,13.72882
1989,2.876472,0.8703892,13.130016
1990,-0.99930257,-3.6643088,7.8741813
1991,-0.41006997,-8.32134,7.481459
1992,2.2226331,-14.27887,9.879367
1993,2.8310082,-16.042082,8.803793
1994,0.68464637,-14.659628,8.07787
1995,-0.9586246,-12.240185,7.400103
1996,-2.149353,-8.853145,5.840581
1997,-1.2173486,-5.221438,3.9577286
1998,-0.9203394,-2.9168508,3.2940195
1999,-0.6376872,-0.5694918,3.952943
2000,-0.78873414,0.7289136,5.785546
2001,-0.75493556,-0.32991043,8.4349985
2002,-1.7850457,-3.5111682,10.3441725
2003,-3.5291142,-6.0023956,11.608779
2004,-4.9088755,-7.1138616,10.492527
2005,-5.4263234,-6.512665,8.810971
2006,-5.5746784,-3.4633117,7.426424
2007,-4.429713,-1.2113664,6.750751
2008,-3.1719856,-0.1788635,6.463313
2009,-0.8964112,-1.1276177,8.386844
2010,0.06909275,-2.7732813,9.431311
2011,-0.5276174,-3.3936207,9.939187
2012,-1.9265213,-4.342375,9.927223
2013,-3.545864,-4.2535415,9.131908
2014,-3.7061832,-3.5877385,8.990732
2015,-4.008277,-2.725425,9.50818
2016,-4.0417767,-2.2007985,10.099805
2017,-3.1866415,-2.385345,10.159626
2018,-3.612863,-2.603092,9.563215
2019,-3.7950168,-2.9096723,9.419347
2020,-4.022634,-2.8474588,9.71157
2021,-4.1997027,-2.6919255,9.6326065
2022,-4.6094737,-2.4116662,9.445667
2023,-4.583153,-2.0353947,9.88176
2024,-4.7362933,-1.8798612,9.680463
2025,-4.8562336,-1.7216359,10.102198
2026,-4.2981076,-1.5299109,10.095019
2027,-3.7061832,-1.6019948,10.1955185
2028,-3.7615173,-1.5658033,10.047163
2029,-4.3986063,-1.6187445,10.068699
2030,-4.7362933,-1.6977077,10.068699
2031,-5.0189457,-1.5729818,9.646963
2032,-5.181957,-1.4988043,9.81476
2033,-5.011767,-1.5394822,10.229017
2034,-4.374678,-1.6953149,10.375279
2035,-4.1638107,-1.814956,10.518848
2036,-4.2598224,-1.9612173,10.765608
2037,-4.3962135,-2.0760727,10.653146
2038,-4.5951166,-2.0162523,10.406385
2039,-4.65733,-1.9899311,10.396814
2040,-4.5281177,-2.1816561,10.586146
2041,-4.369892,-2.2917259,10.468599
2042,-4.434499,-2.2797618,10.334601
2043,-4.467998,-2.3395824,10.145268
2044,-4.645366,-2.3300111,9.896116
2045,-4.712365,-2.5528426,9.905687
2046,-4.5879383,-2.7230322,9.819546
2047,-4.645366,-2.7948167,9.83151
2048,-4.7482576,-2.8307092,9.687641
2049,-4.5999026,-2.7302105,9.8219385
2050,-4.5206404,-2.8139594,9.71157
2051,-4.3986063,-2.6703901,9.440882
2052,-4.269394,-2.6270201,9.326026
2053,-4.099204,-2.6512475,9.179765
2054,-3.8787656,-2.6799614,8.995518
2055,-3.7878382,-2.4858437,8.763115
2056,-3.7830527,-2.4355943,8.81815
2057,-3.6846478,-2.5169504,8.971589
2058,-3.7447674,-2.6413772,9.072088
2059,-3.708576,-2.6799614,8.882756
2060,-3.5123646,-2.672783,8.7367935
2061,-3.370889,-2.7062824,8.346166
2062,-3.2775688,-2.64377,8.384451
2063,-2.8558338,-2.4427729,7.819146
2064,-2.5229323,-2.373082,8.310273
2065,-2.3168504,-2.1816561,8.681459
2066,-2.2187448,-2.224727,9.570394
2067,-2.079662,-2.4882364,9.862617
2068,-2.0365913,-2.5648067,9.793225
2069,-1.5550356,-2.7852457,9.819546
2070,-0.9490533,-3.1492536,10.360922
2071,-0.69272214,-3.4752758,10.794322
2072,-0.33349967,-3.8416767,10.523634
2073,-0.03888337,-4.4165525,9.335598
2074,-0.024526432,-4.8909297,9.04816
2075,-0.5491528,-5.6240306,9.431311
2076,-1.6893328,-6.678069,7.9965143
2077,-2.5468607,-7.992925,6.7579293
2078,-2.8701909,-9.605089,5.6129637
2079,-3.4402807,-11.754143,5.3685966
2080,-4.0824547,-12.906287,3.3589249
2081,-4.6836514,-15.117255,-0.9556335
2082,-5.759225,-18.434904,-3.3460634
2083,-7.5583286,-24.442982,-4.4674
2084,-7.170093,-35.77599,-2.5821548
2085,-6.61436,-42.77081,-3.1043882
2086,-5.050052,-37.51288,-3.5497525
2087,-5.2920265,-31.976784,-3.6577284
2088,-4.1901317,-23.024937,-2.7592237
2089,-3.6248271,-19.695024,-1.0776675
2090,-3.1695926,-16.010675,0.82672024
2091,-2.8319056,-11.9407835,2.5971098
2092,-2.4367907,-7.4252276,4.918148
2093,-1.7850457,-4.5987062,7.457531
2094,-0.7046863,-0.8952148,14.351851
2095,0.19830517,0.750449,14.883656
2096,-0.14177474,-1.5610176,5.2896338
2097,-1.0328021,-3.4055848,-0.28953153
2098,-1.1670992,-3.3242288,-0.42622152
2099,-0.6975078,-2.1457636,0.22073789
2100,-5.4670014,-1.7982062,12.58864
2101,-5.1795635,-1.3070793,10.425529
2102,-4.0154557,-0.7923234,1.9884356
2103,-2.865405,-0.2940181,-1.5568303
2104,-1.3133606,0.17318054,-3.9810586
2105,-1.4258232,0.48454657,-4.56072
2106,-1.5888343,0.49651068,-4.153342
2107,-1.1096715,0.99960166,-2.5196424
2108,-0.03888337,1.2439687,-1.695614
2109,-0.48903313,1.9148563,-1.3459628
2110,-1.0929217,1.7398812,-1.1015958
2111,-1.1264212,1.5744773,-1.2693924
2112,-1.4712868,1.3734802,-1.3244274
2113,-1.6175481,1.3229318,-1.3339987
2114,-1.5335002,1.4644074,-1.4536397
2115,-1.7587247,1.5864414,-2.1317058
2116,-2.0676978,2.0751755,-3.9667017
2117,-1.2317054,2.487339,-4.88405
2118,-0.52522457,2.3338995,-5.0135617
2119,-1.2173486,1.1458629,-3.7797625
2120,-2.0222342,0.5805586,-2.1795623
2121,-2.0294127,0.5587241,-1.0322039
2122,-1.8523438,0.43429732,-0.60329044
2123,-1.4880366,0.12053844,-0.40438703
2124,-1.2460624,-0.16450655,-0.33738798
2125,-1.1766706,-0.2940181,-0.19621146
2126,-1.0809577,-0.48305106,-0.2009971
2127,-0.9514461,-0.526421,-0.25124636
2128,-0.6735796,-0.5838487,-0.13369897
2129,-0.55393845,-0.76331043,-0.3469593
2130,-4.7458644,-5.061119,33.84408
2131,-5.428716,-5.777171,9.757333
2132,-2.2881367,-6.8575306,-12.139986
2133,-1.7012969,-7.734201,-7.9073815
2134,-8.289037,-19.810179,10.840085
2135,-15.324533,-57.09125,17.350956
2136,-5.0718865,-77.50083,56.033325
2137,-4.556832,-77.65906,25.838297
2138,-2.9733813,-40.38277,-7.368099
2139,-0.23748764,-20.722742,-25.789543
2140,-2.515754,-8.007581,-18.47618
2141,-2.8486555,-1.2400804,0.9514461
2142,-6.463612,1.212862,10.150055
2143,-7.4240313,0.97567344,5.4837513
2144,-6.5090756,1.0546366,-0.37567315
2145,-4.7458644,0.37447673,-1.0680962
2146,-2.556432,0.7073782,0.81236327
2147,-1.1192428,1.2774682,4.125226
2148,-1.4904294,1.5361922,7.253842
2149,0.0738784,2.012962,11.410174
2150,0.77318084,-2.7086751,8.49482
2151,2.2226331,-10.707283,11.144273
2152,6.7669024,-17.004892,12.071192
2153,7.157232,-17.694923,10.7177515
2154,2.778366,-15.040685,8.350951
2155,-1.8738792,-11.159825,6.980761
2156,-4.1518464,-8.120044,5.4789658
2157,-4.034598,-5.408377,4.6764727
2158,-3.7061832,-3.6667016,4.125226
2159,-3.4692938,-2.5432713,3.694219
2160,-3.545864,-1.585245,3.9194436
2161,-3.3110683,-0.78753775,4.8415775
2162,-2.8366911,-1.3863416,5.3829536
2163,-2.0605195,-2.6656044,6.3341007
2164,-2.0844476,-4.941179,7.917551
2165,-2.4511478,-5.669494,8.813364
2166,-2.9422746,-6.139086,9.587143
2167,-3.449852,-6.1124654,9.687641
2168,-2.8701909,-5.6647086,8.887542
2169,-2.216352,-5.1999025,8.444571
2170,-1.7994026,-3.3840494,7.400103
2171,-2.0150557,-0.9909277,6.745965
2172,-1.6271194,-0.4423731,6.439385
2173,-2.053341,-1.5828521,7.620542
2174,-2.5372894,-2.373082,8.63121
2175,-3.1743784,-2.8905299,9.352347
2176,-3.6080775,-3.568596,9.546465
2177,-4.262215,-3.431906,9.445667
2178,-4.228417,-3.5231323,8.86122
2179,-4.2451663,-3.3242288,8.846864
2180,-4.0848475,-3.1133614,8.403593
2181,-4.063312,-2.7421749,8.439785
2182,-3.9098723,-2.4619155,8.722437
2183,-3.5339,-2.3347967,8.854042
2184,-3.8237305,-2.7302105,8.6599245
2185,-3.8333018,-2.3491535,9.060123
2186,-4.4775696,-2.4092734,9.105587
2187,-4.8658047,-2.1625135,9.266206
2188,-4.9567323,-1.8607187,9.649357
2189,-4.647759,-1.6043876,9.340384
2190,-4.556832,-1.6594225,9.273384
2191,-4.769793,-1.841277,9.522537
2192,-4.92084,-2.387738,9.46481
2193,-4.796413,-1.6761723,9.879367
2194,-5.3039904,-1.6235301,9.943973
2195,-5.428716,-1.3839488,9.953544
2196,-5.2896338,-0.9837492,9.982258
2197,-5.165207,-0.64845496,10.095019
2198,-5.165207,-0.7537391,10.071092
2199,-5.428716,-0.88325065,10.260124
2200,-5.4550376,-1.0052847,10.526027
2201,-5.38086,-1.218545,10.97169
2202,-5.3353963,-1.2783655,11.266306
2203,-5.665905,-1.2400804,11.204093
2204,-5.938986,-1.2831511,11.347662
2205,-6.1307106,-1.3169497,10.952547
2206,-6.29103,-1.5227325,10.727323
2207,-6.454041,-1.5442679,9.845867
2208,-6.7797637,-1.474876,9.50818
2209,-6.9475603,-1.556232,9.536894
2210,-6.9619174,-1.8173488,10.07827
2211,-6.937989,-1.9851454,10.358529
2212,-6.753443,-2.0521445,10.34178
2213,-6.4037914,-1.8894325,10.01815
2214,-6.1064835,-1.7503498,9.469596
2215,-5.857331,-1.6307086,9.613464
2216,-5.7281184,-1.4772689,9.280562
2217,-5.519644,-1.4246268,9.579965
2218,-5.239384,-1.5251254,9.673285
2219,-4.81077,-1.6067804,9.393025
2220,-4.552046,-1.8535402,9.520144
2221,-4.42732,-2.0258234,9.725926
2222,-4.3962135,-2.0353947,9.4432745
2223,-4.3292146,-2.0282164,8.796615
2224,-4.1015973,-2.0545373,8.386844
2225,-4.1279182,-2.1385853,8.07787
2226,-4.2981076,-2.2390838,8.010871
2227,-4.456034,-2.5289145,8.027621
2228,-4.573581,-2.9195428,8.185846
2229,-4.67408,-3.1492536,8.34138
2230,-4.7916274,-3.321836,8.485249
2231,-4.7578287,-3.388835,8.9210415
2232,-4.6357946,-3.10379,9.007482
2233,-4.3268213,-2.7182465,9.304491
2234,-3.9673,-2.5648067,9.670892
2235,-3.5745778,-2.78046,9.2997055
2236,-2.8558338,-3.1396823,9.153444
2237,-2.1230319,-3.6978083,9.812367
2238,-1.4473586,-4.5675993,9.326026
2239,-1.2675978,-5.2836514,8.573783
2240,-0.7070791,-6.3305116,7.90798
2241,-1.1383854,-7.272087,7.033403
2242,-2.149353,-8.28784,5.469095
2243,-3.7806597,-9.123833,6.06102
2244,-4.820341,-10.685748,6.0801625
2245,-5.953343,-12.4630165,3.6248271
2246,-5.960521,-14.084752,0.3379862
2247,-4.3387856,-15.332909,-2.4670002
2248,-6.058627,-17.9031,-3.6023946
2249,-6.9786673,-23.19722,-5.811269
2250,-6.5282183,-30.558739,-4.465007
2251,-7.8696947,-35.74488,-5.0662036
2252,-6.168996,-33.979576,-4.249354
2253,-4.6549373,-28.453054,-2.1867409
2254,-3.3780673,-23.408087,-1.1087742
2255,-2.309672,-20.33959,0.20398813
2256,0.44027936,-14.257335,4.86072
2257,2.059622,-10.043574,9.35474
2258,5.0395837,-2.792424,22.149162
2259,5.0826545,-2.1095722,16.593925
2260,1.9782661,-4.85743,2.2447667
2261,0.87637126,-5.791528,1.4183456
2262,1.4033905,-4.692026,2.3431716
2263,-0.77677006,-2.2821546,6.7005014
2264,-6.302994,-0.40887356,21.198015
2265,-4.417749,-0.13339986,7.6253276
2266,-4.9567323,-1.2544373,-3.4803605
2267,-3.8380876,-2.2295125,-6.5536423
2268,-3.1265218,-1.7886349,-8.048558
2269,-2.623431,-0.6628119,-7.4976106
2270,-2.0222342,0.13010973,-5.006383
2271,-1.9073788,0.9804591,-3.6696925
2272,-1.5335002,1.687239,-2.8432715
2273,-1.2628121,2.1134605,-1.329213
2274,-1.0232308,2.3961127,-0.43100718
2275,-1.5864414,1.8164514,-0.4214359
2276,-1.4521443,1.6537396,-0.5099703
2277,-1.1670992,1.5122639,-0.27756742
2278,-0.90358967,1.4763715,0.14656039
2279,-0.87248296,1.3516457,0.1680958
2280,-1.183849,1.2726825,-0.3062813
2281,-1.320539,1.334896,-1.547259
2282,-1.1670992,1.4859428,-3.1402807
2283,-0.613759,1.2966107,-4.56072
2284,-0.654437,0.43908295,-4.033701
2285,-0.86530447,0.027218357,-3.2383864
2286,-1.1479566,0.0029910284,-2.2752752
2287,-1.1048858,0.063110694,-1.3004991
2288,-1.1216356,0.15882361,-0.8333005
2289,-1.1383854,0.118145615,-0.63200426
2290,-1.0833504,0.118145615,-0.36610186
2291,-0.9562318,0.16600206,0.017048862
2292,-0.721436,0.31944183,0.32123643
2293,-0.5395815,0.31465617,0.5512465
2294,-0.9586246,0.07507481,4.9567323
2295,-9.774082,-4.895715,32.655746
2296,-7.931908,-4.87418,1.7443677
2297,-0.005383851,-3.7339997,-13.040883
2298,3.2623146,-5.0682974,-7.899904
2299,-4.65733,-14.180764,3.083451
2300,-7.9941216,-44.459843,46.21677
