,ax,ay,az
501,-6.9595246,0.41994038,11.117951
502,-6.3915286,0.73369926,10.950154
503,-6.0753765,0.72412795,11.306984
504,-6.3795643,0.62841505,11.127522
505,-6.602396,0.41515473,11.345269
506,-6.7390857,0.43669012,11.862718
507,-6.5665035,0.043968115,11.812469
508,-6.4683976,-0.071186475,11.812469
509,-6.588039,-0.10707881,11.551352
510,-6.5808606,-0.23868406,11.398211
511,-6.604789,-0.22911277,10.765608
512,-6.477969,-0.33469605,10.547563
513,-6.4683976,-0.4016951,10.634003
514,-6.5521464,-0.6939186,10.650753
515,-6.324529,-0.80907315,10.262517
516,-6.1307106,-0.8665009,10.121341
517,-5.8743796,-0.8712866,9.910473
518,-5.668298,-0.98614204,9.872188
519,-5.3330035,-1.0677971,9.879367
520,-5.172385,-1.1060823,9.670892
521,-4.999803,-1.4030914,9.247063
522,-4.5544386,-1.6737795,8.763115
523,-4.2909293,-1.8750757,8.806186
524,-3.9314077,-2.4212375,8.473284
525,-3.6990047,-2.7876384,8.8492565
526,-3.5650067,-2.9745777,9.107981
527,-3.2297122,-3.0822546,9.771689
528,-2.8677979,-2.9817562,10.066306
529,-2.5061827,-2.4619155,11.422139
530,-2.2905295,-1.8726828,13.194622
531,-2.2019951,-1.2951152,11.163415
532,-2.2067807,-1.0339985,9.94158
533,-2.4104698,-1.1611172,10.736895
534,-2.3048863,-1.8125632,9.963116
535,-2.650051,-3.0296125,10.432707
536,-3.4163525,-4.613063,9.603892
537,-4.424927,-6.2587266,7.4048886
538,-5.1436715,-8.500801,7.4048886
539,-6.494719,-10.37169,4.223631
540,-7.8409805,-11.0353985,0.8673982
541,-7.9773717,-11.485847,-1.4946169
542,-7.704291,-13.406985,-5.5166526
543,-7.620542,-14.408082,-6.7836523
544,-3.4597225,-18.902103,-4.2517467
545,-7.1748786,-22.775784,-3.4683964
546,-8.327322,-28.802706,-5.116453
547,-10.437792,-37.024143,-4.817051
548,-8.617152,-35.29952,-1.8705891
549,-5.069494,-27.959534,-2.3186452
550,-1.6893328,-19.881964,-0.14327025
551,2.0380867,-12.946965,9.541679
552,4.182056,-5.556732,31.651958
553,0.9026923,-2.9315069,28.566713
554,-0.37417763,-6.70439,4.9878387
555,-1.468894,-7.923533,-2.7999015
556,-1.3010973,-7.176075,-0.19860429
557,-3.045166,-5.655137,6.7411795
558,-4.7434716,-4.9316072,9.393025
559,-2.6042883,-3.144468,-0.29671
560,-2.9108686,-2.4595225,-2.400001
561,-1.9600209,-1.992324,-1.9423738
562,-0.98016,-0.634098,-1.8251255
563,-1.0304092,0.424726,-2.5028925
564,-0.7815557,1.2152548,-3.025126
565,-0.7815557,1.4596218,-2.9341989
566,-0.9490533,1.5864414,-2.457429
567,-1.2556337,1.6247265,-2.2058833
568,-1.334896,1.6319051,-1.8897316
569,-1.6510476,1.6968104,-1.3196417
570,-1.6558332,1.5864414,-0.9699905
571,-2.0700908,1.675275,-1.3483555
572,-2.8965118,2.1134605,-4.8792644
573,-3.1193435,2.408077,-6.0747786
574,-1.8882362,4.195216,-9.924232
575,-2.5372894,4.262215,-7.8759756
576,-2.2307088,3.6610186,-5.3679986
577,-1.4210376,2.9303105,-2.455036
578,-2.053341,1.986641,-1.0417751
579,-2.2737796,0.9302098,-0.27517462
580,-1.7970098,0.52283174,0.21834506
581,-1.468894,0.27128628,0.33559337
582,-0.965803,-0.047258247,0.25663024
583,-0.84855473,-0.1692922,0.3499503
584,-0.8557332,-0.349053,0.32362926
585,-0.76689965,-0.59342,-0.13130614
586,-0.73340017,-0.9167502,-0.5626124
587,-0.6329016,-1.082154,-1.0058829
588,-0.43639103,-1.1395818,-1.0513464
589,-0.2832504,-1.314557,-1.1039885
590,0.090628155,-1.3241283,0.381057
591,0.054735817,-6.1773705,48.099625
592,-8.626724,-12.633206,17.135302
593,-13.848761,-13.8691,-13.974981
594,-3.679862,-10.235299,-15.510575
595,0.53359944,-8.630313,-14.727225
596,-0.59700924,-16.727026,5.131408
597,-9.647263,-30.062826,13.54218
598,-5.3904314,-52.707603,62.93243
599,-45.402313,-77.613594,28.710283
600,-15.714863,-49.018467,-21.310179
601,-2.623431,-27.866215,-26.879475
602,-0.64247286,-14.743676,-19.187746
603,-0.22313072,-9.41127,-7.0471616
604,-1.3803595,-1.1156535,12.396915
605,-1.0208379,1.2248261,12.593426
606,-1.0522437,1.8116659,2.1442683
607,0.7683952,3.3807592,5.2944193
608,1.7697915,4.243073,9.996614
609,1.9040886,3.016751,14.219947
610,-0.9203394,1.4237294,8.528319
611,2.510071,6.149853,7.4479594
612,11.359028,4.3582273,8.628818
613,10.692926,-5.142475,10.600503
614,5.343771,-8.850752,12.174382
615,-2.594717,-5.805885,13.8296175
616,-4.578367,2.528017,10.674681
617,-4.3411784,5.912665,6.142376
618,-4.44407,1.8068802,7.196414
619,-5.7951174,-3.0822546,9.661321
620,-6.267102,-3.388835,10.9788685
621,-6.5688963,-2.8354948,10.95494
622,-7.0695944,-1.9492532,11.417354
623,-7.309176,1.0546366,9.522537
624,-5.280062,2.568695,8.504391
625,-2.9829526,2.0847468,9.131908
626,-2.6018956,0.10139586,10.2673025
627,-2.3889344,-0.31076783,10.8759775
628,-3.2847474,0.5709873,10.212268
629,-4.6142592,1.4189439,10.607682
630,-5.7017975,1.9770697,10.942976
631,-6.1570315,1.7973089,11.364711
632,-6.020342,1.6441683,11.306984
633,-6.111269,1.4739788,11.611172
634,-5.840581,1.6633109,11.429317
635,-5.7664037,1.5314065,12.485748
636,-5.6300125,1.4763715,12.396915
637,-5.5651073,1.2032907,12.305987
638,-5.749654,1.076172,11.9515505
639,-6.0729837,1.1075778,11.493923
640,-6.669694,0.9828519,11.098808
641,-6.7055864,0.71216387,11.029118
642,-7.0145597,0.31465617,11.220842
643,-7.155736,-0.20757736,11.247164
644,-7.345068,-0.42083767,11.419746
645,-7.282855,-0.47826543,10.581361
646,-6.9906316,-0.43998027,10.590932
647,-6.7558355,-0.46869412,10.657931
648,-6.425327,-0.64845496,10.789536
649,-5.799903,-0.95742816,11.139486
650,-5.201099,-0.7465607,9.900902
651,-4.9926243,-0.4351946,9.759726
652,-4.92084,-0.4447659,10.643574
653,-4.8849473,-0.49262238,10.466207
654,-4.295715,-0.63170516,9.977472
655,-4.10399,-0.7537391,10.01815
656,-3.8333018,-0.9000004,10.856834
657,-3.5123646,-1.2711871,10.054341
658,-3.3469608,-1.3217354,9.424132
659,-2.8510482,-1.4318053,9.6326065
660,-2.6548367,-1.7096717,9.546465
661,-2.5588248,-1.8005991,10.209875
662,-2.824727,-1.666601,11.086546
663,-3.2033913,-1.3384851,11.807682
664,-2.7194428,-0.9981061,11.426925
665,-3.1073792,-0.91196454,11.297413
666,-3.1962128,-1.096511,11.388639
667,-3.0236306,-1.3600205,10.638788
668,-2.6668007,-2.0401804,11.239985
669,-2.7314072,-3.0320053,10.336994
670,-2.5875385,-4.2969112,9.833903
671,-2.3670998,-5.820242,9.433703
672,-2.6811578,-7.964211,10.015758
673,-3.4283166,-10.575378,7.845467
674,-4.2646084,-11.840284,5.3015976
675,-5.361717,-11.662917,3.3732817
676,-3.694219,-11.078469,-0.45254257
677,-3.2009985,-13.703995,-2.3377876
678,-3.3637104,-15.442978,-2.4119651
679,-4.875376,-17.809778,-5.480461
680,-3.7256248,-21.22344,-4.6301117
681,-4.5134616,-27.125935,-4.9657054
682,-6.4588265,-34.2383,-5.4684973
683,-9.079565,-33.766315,-4.6612186
684,-6.8108706,-29.365616,-3.1737802
685,-3.9074793,-22.605595,-1.0226326
686,-1.3420744,-16.374983,-0.3469593
687,1.7793628,-9.820743,4.0103707
688,4.141378,-2.7972097,16.519749
689,1.7985053,-4.0740795,17.030018
690,-1.4473586,-4.4404807,18.812073
691,-4.139882,-4.2705903,17.803797
692,-7.730612,-4.8263235,11.580065
693,-10.21496,-5.259723,-0.14596218
694,-11.707184,-3.918247,-2.9629126
695,-7.637292,-1.7120646,-0.45014977
696,-4.9232326,0.072681986,-3.5353954
697,-1.7874385,1.1530414,-5.605187
698,-1.6151553,1.4596218,-5.298607
699,-1.4353945,2.0416758,-3.3556347
700,-0.15373886,2.350649,-1.4799608
701,-0.5132605,2.5998018,-1.017847
702,-1.2843475,2.298007,-0.6128617
703,-0.81984085,1.4189439,-0.67028946
704,-0.89401835,1.0474582,-0.84047896
705,-0.9562318,0.9804591,-1.3818551
706,-1.0423734,1.2607185,-2.210669
707,-1.1383854,1.3782659,-3.8108692
708,-0.86291164,1.5577276,-4.9752765
709,-0.49142596,2.231008,-6.8339014
710,-0.093918286,2.7364917,-6.8653073
711,0.485743,3.0311081,-6.0194445
712,-0.32153556,2.4825535,-4.1632123
713,-1.334896,1.2367902,-2.2178476
714,-1.5741782,0.7073782,-1.1255239
715,-1.3420744,0.56380886,-0.4764708
716,-1.1264212,0.43669012,0.22073789
717,-1.0040882,0.36251262,0.5416752
718,-0.9729815,0.26171497,0.51056856
719,-0.7959126,0.09900304,0.23988047
720,-0.62811595,-0.19800608,-0.25842485
721,-0.6257231,-0.39212382,-0.5985048
722,-0.54675996,-0.7465607,-1.1111671
723,-0.44835514,-0.9071789,-1.329213
724,-0.1585245,-1.0486546,-1.4153546
725,0.5192425,-1.1970096,5.701498
726,-0.1274178,-8.726026,50.81129
727,-9.170493,-14.657235,6.166304
728,-14.158032,-17.026428,-10.920842
729,-3.0068808,-12.5686,-16.123735
730,1.2714862,-9.660423,-15.431612
731,1.2571292,-12.846467,4.2499523
732,-3.1313076,-26.400013,20.829222
733,4.1054854,-48.85785,45.629932
734,-36.467216,-77.553474,18.685253
735,-14.902799,-48.589554,-10.654941
736,-2.935096,-27.286552,-16.241283
737,-1.727618,-15.445371,-16.147665
738,-2.4655046,-8.807681,-10.434502
739,-3.2416766,-4.203292,1.2963116
740,-3.4354951,2.5328028,18.836
741,-3.7037904,2.7173493,14.898013
742,-3.3661032,0.8006983,5.90758
743,-2.5348964,-0.25094727,4.542176
744,1.1614163,1.9124635,7.637292
745,4.0480576,3.4908292,8.451749
746,2.306382,-1.0148559,11.259128
747,2.0093727,-5.6407804,10.427921
748,3.1423743,-9.61496,9.860224
749,1.8942182,-11.0353985,14.35903
750,-2.2235305,-7.214659,13.896617
751,-1.0016954,-2.4092734,8.942576
752,1.7147565,8.720343,5.2633123
753,-1.8475581,12.907783,6.95444
754,-5.002196,7.158428,8.089834
755,-6.885048,-0.39212382,10.748858
756,-6.6167526,-3.3170505,10.66511
757,-5.0069814,-3.6714873,10.104591
758,-5.625227,-3.0607193,10.260124
759,-5.3569317,-2.1218355,10.322637
760,-4.2427735,-0.4543372,10.028021
761,-3.3517463,0.39840496,10.49492
762,-2.053341,1.0019945,10.791929
763,-3.0667014,0.73369926,10.451849
764,-4.3172503,0.36251262,11.369496
765,-5.4239306,0.12532409,11.149058
766,-5.977271,-0.13339986,11.199307
767,-6.489933,-0.23389842,11.12513
768,-6.3388863,-0.13100705,10.950154
769,-6.794121,0.41994038,10.162019
770,-6.8778696,0.506082,10.602897
771,-6.573682,0.317049,10.698609
772,-6.1378894,-0.08315059,11.453245
773,-6.099305,-0.14057833,11.580065
774,-6.1905313,-0.30358937,11.536994
775,-6.643074,-0.59581286,11.647364
776,-6.6167526,-0.6867401,11.568101
777,-6.3388863,-0.74416786,11.474781
778,-6.2934227,-0.89760756,11.381461
779,-6.013163,-1.082154,11.213664
780,-5.9294147,-1.2807583,10.772787
781,-5.9964137,-1.448555,10.557134
782,-6.276673,-1.8340986,10.969297
783,-6.176174,-2.1577277,11.045868
784,-5.8597236,-2.2534406,11.021939
785,-5.4670014,-2.0282164,10.74168
786,-5.064708,-1.9588244,10.823036
787,-4.8251266,-2.0545373,10.701002
788,-4.391428,-2.1505494,9.943973
789,-4.1901317,-2.1095722,9.6326065
790,-4.187739,-2.399702,9.69482
791,-3.9673,-2.7110682,9.017053
792,-3.5937204,-2.8474588,9.333204
793,-3.4307094,-3.0798619,8.820542
794,-3.411567,-2.7493532,9.287741
795,-4.4799623,-1.9492532,10.327422
796,-4.721936,-1.4006985,10.70818
797,-4.4751763,-1.1036894,10.746466
798,-4.0417767,-1.1730813,9.829117
799,-3.5985062,-1.4126626,9.194122
800,-3.152843,-1.9325033,9.220443
801,-2.9973094,-2.7397819,10.104591
802,-2.9036903,-4.2056847,9.409775
803,-2.3503501,-5.3557353,9.210872
804,-2.14696,-6.785746,7.7665043
805,-2.6401806,-7.97139,7.1246295
806,-3.409174,-9.253045,6.561718
807,-5.8767724,-12.103794,4.7506504
808,-6.369993,-14.135001,3.6607196
809,-8.289037,-18.061325,3.01376
810,-7.349854,-20.57648,-0.9843474
811,-4.3005004,-21.767208,-3.9020956
812,-4.1925244,-21.072393,-4.2038903
813,-2.3048863,-21.817457,-2.0288146
814,-4.3483567,-24.198616,-2.4885356
815,-6.1713886,-27.863821,-4.2924247
816,-6.969096,-28.028927,-3.365505
817,-6.7438717,-25.190441,-2.021636
818,-5.4311094,-22.088146,-1.5759728
819,0.023330022,-13.4045925,3.6005998
820,8.16102,-4.450052,20.228025
821,6.7429743,-4.7159543,12.332309
822,2.7831519,-8.673384,2.542075
823,1.20688,-7.763214,0.6206384
824,-7.699505,-7.7054873,24.192335
825,-12.90509,-6.5605216,21.909582
826,-13.674084,-6.237191,10.063913
827,-13.631013,-5.2549376,-0.72083783
828,-10.104591,-3.9999022,-2.14367
829,-6.29103,-1.7288144,-4.009773
830,-2.5803602,0.12532409,-4.3259244
831,-1.3325031,0.7600203,-4.496114
832,-0.721436,1.3229318,-3.6840496
833,-0.7190432,1.6007984,-3.4803605
834,-0.18723837,1.6728821,-2.687439
835,-0.7190432,1.9507487,-2.2875385
836,-0.7815557,1.7901305,-2.1795623
837,-0.59940207,1.2918252,-1.9686948
838,-0.5587241,1.0689936,-1.451247
839,-0.6161518,1.0594223,-1.8586249
840,-0.32392836,1.2200404,-2.5869403
841,-0.06520442,1.430908,-3.1235309
842,0.4977071,1.8667008,-4.3187456
843,1.1590235,1.9842482,-4.9031925
844,1.4321043,2.0847468,-5.3009996
845,1.4751751,1.8427725,-4.9606204
846,-0.23030917,0.5829514,-3.4420755
847,-0.66161543,0.49172506,-2.3258235
848,-0.65922266,0.51086766,-1.4994025
849,-0.8700901,0.61405814,-1.0680962
850,-1.0208379,0.4749753,-0.45732823
851,-0.9873384,0.35294133,-0.2632105
852,-0.6975078,0.014955142,0.007477571
853,-0.5491528,-0.14297116,-0.26799613
854,-0.33349967,-0.23629123,-0.6008976
855,-0.16570297,-0.45673,-0.97477615
856,-0.055633128,-0.64606214,-1.262214
857,0.200698,-0.70348984,-1.3100704
858,0.55752766,-0.80907315,-0.35413775
859,0.07866404,-2.6679974,33.838997
860,-0.5132605,-6.9655066,28.252954
861,-1.7946169,-11.078469,6.2524457
862,-5.098208,-11.983854,-14.356038
863,-2.5851457,-10.081859,-12.944871
864,1.5182459,-8.256434,-15.24228
865,-6.4205413,-11.674881,11.563315
866,-10.356136,-20.315662,5.799903
867,-17.281563,-52.57809,48.391846
868,-29.239994,-77.49365,64.2428
869,-21.890438,-77.65906,12.387343
870,5.466104,-40.85924,-25.456642
871,1.2930216,-16.037296,-12.892229
872,-1.672583,-12.654741,-11.1269245
873,-7.701898,-4.735097,1.3202399
874,-9.026625,0.9206385,7.850253
875,-3.9338005,3.6586258,2.6712873
876,-3.4450665,5.0599227,0.1274178
877,-1.5287145,5.692525,4.9926243
878,-2.568396,8.111968,11.453245
879,-4.065705,14.2082815,8.944969
880,2.2465613,30.308687,11.814861
881,5.8133626,16.925034,19.655243
882,2.9051857,-6.745068,11.3117695
883,4.1964126,-14.09193,7.9965143
884,3.013162,-15.366408,12.598211
885,0.6367899,-5.791528,13.563715
886,-0.96819586,-2.344368,9.316455
887,-1.0546366,-2.4475584,7.349854
888,-1.3325031,-4.7159543,7.934301
889,-3.3182468,-4.112365,9.06491
890,-7.8696947,-2.3419752,9.347562
891,-9.12503,-0.81864446,8.904291
892,-10.176675,-2.3901308,11.304591
893,-8.636295,-3.0152557,11.278271
894,-4.894519,-2.588735,11.139486
895,-1.6342978,-2.6608188,11.630613
896,-1.3325031,-2.1577277,10.468599
897,-2.8989046,-0.62452674,8.9979105
898,-5.2944193,0.17078772,10.17159
899,-7.3402824,-0.025722843,10.6770735
900,-7.7258263,-0.13579269,11.055439
901,-8.035098,-0.5766702,12.617353
902,-7.1916285,-0.88325065,11.9204445
903,-6.326922,-0.5766702,10.679466
904,-6.094519,-0.4447659,11.635399
905,-5.5890355,-0.4112664,11.4699955
906,-5.8453665,-0.7322037,11.584851
907,-6.216852,-0.98853487,12.30838
908,-6.588039,-1.2783655,12.408879
909,-6.8611197,-1.6163517,11.903694
910,-7.213463,-1.6067804,11.446067
911,-7.201499,-1.4724833,10.942976
912,-6.84437,-1.5586249,10.808679
913,-6.6502523,-1.5370895,10.473385
914,-6.506683,-1.7575282,10.660324
915,-6.4492555,-2.0258234,11.079367
916,-6.466005,-2.1529422,10.468599
917,-6.489933,-2.3539393,10.063913
918,-6.652645,-2.4092734,9.706784
919,-6.6406813,-2.3419752,9.46481
920,-6.005985,-2.3587248,8.978767
921,-5.9318075,-2.3515465,9.112766
922,-5.064708,-2.3371894,8.906684
923,-4.7506504,-2.167299,9.055338
924,-4.4967117,-2.2007985,8.899506
925,-4.532903,-1.9851454,8.657532
926,-4.35075,-2.0760727,7.728219
927,-4.0178485,-2.5289145,10.126126
928,-4.0106697,-3.063112,9.836296
929,-3.3589249,-3.2524443,9.501001
930,-3.5147574,-3.700201,8.504391
931,-3.222534,-3.6427734,9.965508
932,-3.124129,-3.202195,10.4159565
933,-2.8606195,-2.574378,10.399207
934,-2.5516462,-2.0353947,9.718748
935,-1.9289142,-1.3695918,9.615857
936,-0.9059825,-1.4964114,10.34178
937,-0.36699918,-2.0377877,9.687641
938,-0.2976073,-2.8474588,9.94158
939,-1.0450653,-3.67388,9.855438
940,-1.4018949,-5.0512486,10.847263
941,-2.4511478,-6.773782,10.892727
942,-4.2909293,-9.909575,10.315458
943,-4.889733,-10.90828,8.509176
944,-5.203492,-12.048759,3.3565319
945,-3.3613176,-10.853246,-0.60807604
946,-2.556432,-10.110573,-4.8601217
947,-0.6257231,-12.795918,-5.169095
948,-3.8739798,-14.089538,-6.623333
949,-5.598906,-19.000507,-6.6448684
950,-5.1053863,-29.207691,-6.148956
951,-4.5951166,-39.287754,-6.1513486
952,-6.3891354,-37.924744,-4.848158
953,-8.655437,-32.702705,-2.3042881
954,-6.3676,-23.91357,-1.0657034
955,-2.0724835,-15.64906,-0.5602196
956,0.08344969,-10.03161,4.4751763
957,8.525029,0.40797627,32.1383
958,3.4202409,-5.5926247,11.081759
959,-0.8916255,-8.278269,0.040977087
960,-2.1326032,-7.1976104,-3.0275187
961,-8.636295,-6.745068,12.727723
962,-11.9515505,-5.8683977,12.806685
963,-14.112269,-4.8693943,2.7047868
964,-15.484853,-3.8775692,-0.5075775
965,-9.26142,-0.8641081,-0.10977074
966,-4.9399824,0.28085756,-1.8921245
967,-1.9289142,0.8488538,-2.265704
968,-1.5167505,1.1171491,-2.3306093
969,-1.3923237,1.375873,-2.8432715
970,-0.67836523,1.7638094,-2.8241289
971,-0.20398813,2.0105693,-2.9318058
972,-0.38614175,2.1182463,-2.6228328
973,-0.3047858,1.8714864,-2.076671
974,-0.56350976,2.1038892,-2.8022945
975,-0.5946164,2.1589243,-4.0480576
976,0.30149564,2.4849463,-5.4900327
977,1.1422737,2.8513472,-6.5512495
978,2.0548365,3.3089745,-7.3657064
979,2.9796624,3.8072798,-7.9022965
980,2.5148566,3.344867,-4.508078
981,1.3360924,2.1759732,-2.2130618
982,0.4546363,1.0642079,-1.4560326
983,0.4546363,0.78394854,-1.1183455
984,0.4139583,0.74566334,-0.78065836
985,0.18155542,0.58534425,-0.72083783
986,-0.22552353,0.012562319,-0.69930243
987,-0.18005991,-0.3155535,-0.8979067
988,0.08344969,-0.526421,-1.1039885
989,0.28923243,-0.57906306,-1.1829517
990,0.58654064,-0.6412765,-1.3866407
991,0.7516454,-0.6987042,-1.3794622
992,0.9768698,-0.7178468,-1.3603196
993,1.151845,-0.6771688,-1.1063814
994,-1.0881361,-3.4633117,30.506992
995,-6.372386,-6.469594,34.960335
996,-9.920343,-10.378868,9.247063
997,-7.6181493,-8.488837,-17.175383
998,3.2045877,-6.117251,-20.771196
999,5.9620166,-4.718347,-15.888941
1000,1.6740786,-3.2787652,-5.8447685
1001,-1.0929217,-6.1941204,3.0257242
1002,-25.910082,-70.978,78.103226
1003,-78.88179,-77.47451,36.754353
1004,-15.621543,-76.980995,-15.90569
1005,3.1088748,-25.372295,-32.736507
1006,9.82822,-13.837993,-31.016665
1007,7.0806613,-9.12144,-19.887049
1008,6.0457654,-4.9674997,-13.52214
1009,4.982156,1.6223338,1.9477576
1010,7.3513494,10.607981,30.140593
1011,7.133303,10.569695,25.435705
1012,2.4358935,3.9364924,4.6764727
1013,0.2940181,2.8226335,-1.9830518
1014,2.1314068,8.315358,5.191229
1015,4.816752,15.770197,15.075082
1016,4.246662,13.973785,13.422239
1017,3.8204405,-1.2400804,8.655139
1018,6.2805614,-7.1712894,10.276875
1019,6.2805614,-7.1712894,10.276875
1020,1.1279168,-4.4285164,10.911869
1021,-2.1948166,-0.22671995,9.730712
1022,-4.0968113,0.40797627,6.619146
1023,-5.512465,-3.0726833,7.852646
1024,-6.8706913,-4.505087,10.413564
1025,-7.579864,-5.226224,9.433703
1026,-7.6253276,-3.716951,9.742677
1027,-7.8649087,-2.3371894,10.432707
1028,-6.753443,-0.9287143,11.398211
1029,-4.995017,-1.2759727,11.196915
1030,-2.812763,-2.126621,10.847263
1031,-2.8630123,-2.0425732,11.664113
1032,-4.7362933,-0.72023964,11.232807
1033,-5.407181,0.5733801,11.673684
1034,-6.101698,0.9876375,11.029118
1035,-7.7620177,0.9349955,9.582357
1036,-8.406285,0.4749753,10.010972
1037,-8.753544,0.22342981,9.996614
1038,-8.816056,0.5395815,10.063913
1039,-8.803793,1.0737791,11.03151
1040,-7.555936,1.3013964,11.446067
1041,-6.9355965,1.1769696,11.8028965
1042,-6.971489,0.90388876,12.040086
1043,-7.2326055,0.8967103,11.764611
1044,-7.1677003,0.83688974,12.020943
1045,-6.84437,0.7935198,11.436496
1046,-6.777371,0.50368917,11.455638
1047,-6.760621,-0.011365907,12.179168
1048,-6.4923263,-0.39930227,12.054442
1049,-6.4013987,-0.62452674,11.975479
1050,-6.6574306,-0.93589276,12.099906
1051,-6.9113693,-1.0677971,11.834003
1052,-7.282855,-1.2855439,11.450852
1053,-7.1102724,-1.4437693,10.679466
1054,-6.8132634,-1.3911272,10.106984
1055,-6.437291,-1.4030914,9.673285
1056,-6.166603,-1.4174483,9.311669
1057,-5.6324053,-1.434198,8.882756
1058,-5.4239306,-1.3022938,8.492427
1059,-5.445466,-1.1754742,7.565208
1060,-5.5746784,-1.3456637,8.720044
1061,-5.5746784,-2.2007985,8.791828
1062,-5.0886364,-2.8642087,8.81815
1063,-4.892126,-3.6834514,8.803793
1064,-4.999803,-4.395017,9.036196
1065,-4.8251266,-5.0105705,9.256635
1066,-4.90409,-5.0440702,8.758329
1067,-4.4368916,-4.4691944,9.24467
1068,-4.0178485,-3.4968112,9.757333
1069,-3.8404803,-2.6341987,10.595717
1070,-3.5291142,-1.9755741,9.196515
1071,-3.5123646,-1.719243,9.510572
1072,-3.8931224,-2.2462623,9.65175
1073,-3.7663028,-3.374478,9.48156
1074,-3.464508,-4.4596233,9.335598
1075,-3.5841491,-6.517451,9.510572
1076,-4.5038905,-9.528519,11.743076
1077,-6.298208,-11.018649,7.6516485
1078,-6.693622,-12.71217,1.3896317
1079,-5.2776694,-11.399407,-1.0489537
1080,-3.9290147,-11.114362,-4.987241
1081,-3.2440693,-11.962318,-6.326324
1082,0.14566308,-14.207086,-4.7835517
1083,-3.952943,-16.957037,-3.947559
1084,-5.2345986,-22.109682,-4.817051
1085,-5.905486,-30.405298,-6.2901325
1086,-6.331708,-33.27519,-4.6205406
1087,-7.268498,-29.916565,-2.9772696
1088,-6.463612,-25.63102,-2.0407786
1089,-2.9566314,-18.102003,-0.88354975
1090,4.136592,-7.6145597,10.8759775
1091,9.387342,-3.5733814,24.448666
1092,8.031509,-8.663813,19.775183
1093,4.1724844,-9.526126,21.107088
1094,-5.270491,-8.258827,27.84079
1095,-13.803296,-9.93829,11.3524475
1096,-12.596118,-8.764311,-4.4841495
1097,-6.2790656,-6.3400826,-8.29771
1098,-2.0294127,-3.4199417,-8.240283
1099,-1.2604194,-2.047359,-5.4493546
1100,-0.7118647,-0.8210373,-3.2336006
1101,0.37328035,1.1434702,-3.0634112
1102,0.30388847,2.269293,-2.0312073
1103,-0.6376872,2.487339,-1.1207383
1104,-0.7692925,2.355435,-1.4727824
1105,-1.11685,2.734099,-1.8131614
1106,-1.7180467,2.6452653,-1.9926231
1107,-1.9839491,2.5782664,-3.0562327
1108,-2.0700908,3.316153,-5.6147585
1109,-0.88683987,4.3941197,-9.802198
1110,-2.7290142,4.3005004,-11.102697
1111,-2.9685955,4.214359,-10.875379
1112,-1.6414764,4.118646,-8.556435
1113,-2.8438697,2.1735802,-4.941478
1114,-2.1852453,0.94695956,-1.2406785
1115,-1.6414764,0.47736812,-0.28713873
1116,-1.5960127,0.24735804,-0.25603202
1117,-1.4712868,-0.17647067,-0.13130614
1118,-1.2843475,-0.2940181,0.1274178
1119,-1.1264212,-0.35623148,0.5057829
1120,-1.11685,-0.43758744,0.52253264
1121,-1.2149557,-0.64845496,0.23988047
1122,-0.9586246,-0.68195444,-0.07148558
1123,-0.71425754,-0.71306115,-0.14327025
1124,-0.51565325,-0.6723832,-0.102592275
1125,-0.24496523,-0.61016977,0.05054838
1126,-0.046061836,-0.5383851,0.24227329
1127,0.45224348,-0.64606214,1.3609179
1128,-0.45074797,-5.358128,48.78696
1129,-7.3522468,-9.775279,22.019651
1130,-15.801304,-14.190335,-5.2698927
1131,-5.0958147,-12.518052,-12.73191
1132,4.982156,-8.83161,-23.137697
1133,6.268597,-9.341879,-16.76591
1134,-2.6449664,-17.165512,2.8151557
1135,-4.729115,-33.23212,2.0413768
1136,-12.433106,-66.771416,39.672104
1137,-21.665514,-70.94211,58.97979
1138,-24.892235,-50.20411,10.425529
1139,-9.287741,-29.976685,-11.193923
1140,-7.103094,-21.781565,-15.1346035
1141,-6.5401826,-17.38595,-12.667005
1142,-8.966804,-7.453942,1.7033906
1143,-5.517251,-2.1071794,6.099305
1144,-3.5626137,-0.15254244,2.1203399
1145,-1.7012969,0.47976094,1.238884
1146,1.3674982,2.1541386,3.5359936
1147,3.3939197,4.1114674,7.7186475
1148,4.3378882,6.2434726,13.625929
1149,7.494919,10.7685995,11.072188
1150,15.280267,8.622237,8.698508
1151,14.250455,0.8919246,10.466207
1152,8.525029,-7.0899334,12.756436
1153,0.008973085,-6.824031,13.532608
1154,-2.2498515,-1.0941181,12.305987
1155,-2.650051,5.378766,7.565208
1156,-3.5865421,4.252644,4.8918266
1157,-5.1963134,-1.3719847,8.717651
1158,-6.3508506,-3.242873,10.291231
1159,-7.103094,-4.0310087,10.904691
1160,-8.272287,-4.2104707,12.782758
1161,-8.082955,-3.8656049,12.947863
1162,-6.6095743,-3.1109686,11.180164
1163,-4.92084,-1.9420747,9.428918
1164,-3.653541,-0.79710907,9.517751
1165,-4.0202413,-0.83060855,10.576575
1166,-5.191528,-0.5021936,9.800404
1167,-5.790332,-0.23150559,9.747462
1168,-6.6478596,-0.16689938,9.503394
1169,-7.201499,-0.40887356,9.850653
1170,-6.882655,-0.42801616,9.749855
1171,-6.6768723,-0.43758744,9.970294
1172,-6.794121,-0.5910272,10.765608
1173,-6.8874407,-0.49262238,10.859227
1174,-7.076773,-0.48305106,11.527423
1175,-6.7031937,-0.35383865,11.611172
1176,-5.9676995,-0.48065826,12.231811
1177,-5.675476,-0.9741779,12.794722
1178,-5.577071,-1.2999009,11.707184
1179,-6.3604217,-1.7982062,11.606386
1180,-6.9305115,-2.1936202,11.412567
1181,-7.0025954,-2.3949163,11.103595
1182,-6.7223363,-2.5671997,10.854442
1183,-6.454041,-2.495415,10.586146
1184,-6.329315,-2.2797618,10.106984
1185,-6.058627,-2.1577277,9.223135
1186,-5.946164,-2.0665014,9.220443
1187,-5.922236,-2.3012972,10.030414
1188,-5.742475,-2.5049863,10.250553
1189,-5.311169,-2.5145576,9.510572
1190,-5.1053863,-2.2725832,9.160623
1191,-5.035695,-2.2390838,8.72483
1192,-4.8969116,-2.1936202,8.557033
1193,-4.44407,-2.545664,8.108976
1194,-4.491926,-2.9458637,8.269595
1195,-3.9170506,-3.58056,7.8960156
1196,-3.6367912,-3.6020954,8.303095
1197,-3.653541,-3.2524443,9.230313
1198,-4.3890347,-2.754139,9.460024
1199,-4.6501517,-2.2031915,9.905687
1200,-4.6357946,-1.3313067,10.185946
1201,-4.470391,-1.3070793,10.028021
1202,-3.8524444,-1.4700904,10.540383
1203,-3.1169505,-2.1912274,11.237593
1204,-2.4631119,-3.3577285,10.959726
1205,-2.0006988,-4.404588,9.927223
1206,-1.9360926,-6.4408803,9.994222
1207,-1.7802601,-7.545168,8.940184
1208,-2.594717,-9.835099,8.832506
1209,-3.9601214,-11.995818,7.574779
1210,-5.1341,-12.25215,3.2748768
1211,-5.2489557,-12.779168,1.1620145
1212,-6.3221364,-12.834502,-2.117349
1213,-6.753443,-13.227224,-2.85045
1214,-6.2934227,-14.741283,-2.0264218
1215,-6.2455664,-17.007286,-4.0384865
1216,-4.6549373,-21.285652,-3.3149567
1217,-7.555936,-28.750063,-7.126424
1218,-5.419145,-30.098719,-5.94766
1219,-6.192924,-27.47798,-4.9728837
1220,-5.3976097,-24.335306,-4.1703906
1221,-3.6726837,-20.832811,-2.9413772
1222,-1.4497514,-16.315163,-0.8572287
1223,3.4082768,-5.858527,24.168406
1224,3.1663027,-3.0822546,34.241592
1225,2.3542383,-8.115258,13.889438
1226,0.8066803,-9.964611,4.017549
1227,-0.17288144,-9.322437,4.2499523
1228,-8.703294,-8.093722,21.420847
1229,-8.964411,-7.573882,11.834003
1230,-8.130812,-6.4002023,1.3106686
1231,-7.6779695,-4.572385,-8.549256
1232,-4.6381874,-2.9817562,-7.7706914
1233,-1.6366907,-0.5312066,-5.234
1234,-1.5478572,0.48215377,-3.949952
1235,-0.7935198,1.1267203,-2.1771696
1236,-0.6687939,1.4883357,-1.3866407
1237,-0.587438,1.7614166,-1.6357933
1238,-0.41006997,1.8738792,-2.0551355
1239,-0.5587241,1.7374884,-2.1867409
1240,-1.1312069,1.6848463,-2.440679
1241,-1.7180467,1.646561,-3.6672997
1242,-2.1517458,2.0919251,-5.5046883
1243,-2.0198414,2.449054,-8.115557
1244,-1.6677973,3.1339993,-11.510076
1245,-1.049851,3.723232,-11.902797
1246,-1.0232308,3.6466618,-7.2819576
1247,-0.9203394,3.3879378,-4.476971
1248,-0.62811595,2.9207392,-2.239383
1249,-0.8748758,1.7542381,-0.39720857
1250,-1.3034902,0.9828519,0.09840483
1251,-1.7874385,0.43908295,-0.0212363
1252,-1.8906289,-0.047258247,-0.27517462
1253,-1.8161523,-0.34426737,-0.5386842
1254,-1.6486548,-0.43280178,-0.58654064
1255,-1.3010973,-0.5910272,-0.6583253
1256,-1.1383854,-0.63170516,-0.5458627
1257,-1.1240284,-0.79950184,-0.6056832
1258,-1.0256236,-0.9741779,-0.77826554
1259,-1.0088738,-1.0797613,-0.84047896
1260,-0.73579293,-1.0316057,-0.5913263
1261,-0.19202402,-0.86171526,8.542676
1262,-3.1719856,-8.673384,53.923157
1263,-9.306884,-13.196117,-2.766402
1264,-11.153844,-13.392629,-20.325533
1265,-2.8342984,-10.366904,-15.577575
1266,1.9758734,-6.879066,-13.47189
1267,1.2571292,-8.440981,1.2699906
1268,-2.6330023,-27.492336,33.66432
1269,9.126525,-51.840202,38.987156
1270,-16.52214,-77.65906,43.368416
1271,-33.020054,-68.0435,-8.807981
1272,-14.390137,-39.294933,-12.978371
1273,-8.559725,-19.132113,-15.393028
1274,-5.7520466,-6.541379,-6.524928
1275,-5.11735,-2.3132613,-1.4488541
1276,-3.8237305,1.2966107,6.3915286
1277,-2.9374888,3.1866415,8.825328
1278,-3.0499516,3.19382,4.8032923
1279,-3.2009985,2.6189444,-0.07866404
1280,-2.7529426,2.000998,2.7526433
1281,-2.3431716,2.4801607,7.04776
1282,1.1757733,5.85763,12.737294
1283,1.4416757,7.077072,9.208479
1284,2.3374887,3.3544383,10.2361965
1285,9.246166,-4.464409,14.540884
1286,10.000802,-8.668598,10.200304
1287,6.050551,-8.735598,9.326026
1288,0.38285163,-4.191328,12.693924
1289,-0.3598207,1.5481563,9.084052
1290,-0.70947194,2.9159534,6.5832534
1291,-3.4450665,-0.2868396,9.026625
1292,-6.27428,-2.4738796,10.667502
1293,-8.432606,-3.0152557,10.537991
1294,-8.643474,-3.3864422,10.207482
1295,-7.7090764,-3.2380872,10.118948
1296,-7.1342006,-3.0966115,9.697213
1297,-5.471787,-2.2677977,9.24467
1298,-4.1590247,-1.4988043,9.733106
1299,-3.8572302,-1.3887345,10.454242
1300,-4.834698,-1.6977077,11.132308
1301,-5.2513485,-1.489233,10.614861
1302,-5.749654,-1.2089736,9.757333
1303,-6.4181485,-0.93589276,9.915258
1304,-6.425327,-0.69152576,10.257731
1305,-6.283851,-0.72502524,10.015758
1306,-6.300601,-1.0316057,11.2088785
1307,-6.7893353,-1.1228321,11.625529
1308,-6.696015,-1.0124631,11.393425
1309,-6.561718,-1.16351,10.931012
1310,-6.4157557,-1.2113664,10.092627
1311,-6.413363,-1.1970096,10.173983
1312,-6.530611,-1.4940187,11.275878
1313,-6.7797637,-1.6618153,11.3213415
1314,-7.012167,-1.7120646,11.204093
1315,-7.155736,-1.6163517,10.856834
1316,-7.0576305,-1.7001005,10.559826
1317,-6.9332037,-1.8340986,10.662717
1318,-6.446862,-1.8388842,10.475778
1319,-6.125626,-2.033002,10.238589
1320,-5.9676995,-1.9875383,10.0014
1321,-5.7544394,-2.004288,9.984651
1322,-5.6539407,-2.0832512,10.049556
1323,-5.4957156,-2.1601207,9.922438
1324,-5.3449674,-2.1936202,9.943973
1325,-5.3449674,-2.2558336,9.915258
1326,-5.328218,-2.2223341,9.615857
1327,-5.2345986,-2.2151556,9.369097
1328,-5.026124,-2.1601207,9.129516
1329,-4.5592246,-2.1242282,8.595318
1330,-4.451248,-2.0162523,9.174979
1331,-3.99392,-2.248655,7.903194
1332,-3.8955152,-2.6102705,9.055338
1333,-4.0776687,-3.2572298,8.557033
1334,-4.1997027,-3.7073796,8.52114
1335,-4.491926,-3.851248,8.722437
1336,-4.7434716,-3.6595232,9.235099
1337,-4.5014977,-3.0391839,8.873184
1338,-4.182953,-2.4164517,8.463713
1339,-3.9457645,-2.0282164,8.72483
1340,-3.4163525,-2.006681,9.64457
1341,-2.9207392,-2.2438695,10.049556
1342,-2.9108686,-3.2165518,8.312666
1343,-2.882155,-3.851248,8.06112
1344,-2.9036903,-4.6226344,8.454142
1345,-3.2392836,-6.163014,9.970294
1346,-4.1422753,-8.314161,8.267202
1347,-5.486144,-9.049356,6.908976
1348,-7.6947193,-10.366904,4.221238
1349,-8.161918,-10.053145,3.4809587
1350,-6.7965136,-11.66531,-0.9843474
1351,-7.867302,-14.314762,-4.9319067
1352,-3.3254254,-17.721245,-7.1599236
1353,-5.098208,-20.825632,-5.4373903
1354,-3.2847474,-27.013472,-3.0562327
1355,-2.5588248,-35.117363,-2.5582266
1356,-3.0332017,-36.774994,-3.4205399
1357,-4.7674,-31.574492,-4.7309093
1358,-4.738686,-29.698818,-4.845765
1359,-3.2201412,-21.755245,-3.5904303
1360,0.3804588,-13.821242,2.105983
1361,6.1247287,-2.821138,36.82165
1362,3.6382868,-7.1880393,16.203596
1363,1.9208384,-10.316655,4.470391
1364,1.5062819,-8.850752,3.5431721
1365,-3.9074793,-5.7867427,21.667606
1366,-8.617152,-5.195117,23.224737
1367,-9.894023,-4.2777686,-0.75673014
1368,-10.042377,-3.2045877,-8.328817
1369,-7.9247293,-2.2031915,-9.143274
1370,-5.0623155,-1.082154,-7.19103
1371,-3.6607196,0.2832504,-4.1007
1372,-2.7649066,1.1817553,-1.6286149
1373,-1.8810577,1.6704893,-0.13369897
1374,-1.0929217,1.9531415,-0.26081768
1375,-0.5778667,1.8714864,-0.7399804
1376,-0.4435695,1.849951,-0.6200402
1377,-0.4962116,1.6896319,-0.75194454
1378,-0.7262217,1.4117653,-0.9026923
1379,-0.9705887,1.2607185,-1.410569
1380,-0.93230355,1.172184,-2.2154546
1381,-0.85094756,1.2990036,-2.905485
1382,-0.6161518,1.7853448,-4.955835
1383,0.10737792,2.4634109,-6.4124656
1384,0.42592242,2.652444,-6.501
1385,0.770788,2.8369904,-6.515357
1386,1.477568,2.7771697,-5.2193446
1387,0.25812575,1.4524434,-3.475575
1388,-1.1575279,0.6236294,-2.8265216
1389,-1.2939188,0.3505485,-2.0312073
1390,-1.1958131,0.2856432,-0.98674023
1391,-1.1120644,0.17557336,-0.72083783
1392,-1.3325031,-0.123828575,-0.9098708
1393,-1.5936198,-0.43040898,-1.2454642
1394,-1.6677973,-0.66999036,-1.451247
1395,-1.6797615,-0.89760756,-1.8969102
1396,-1.576571,-1.0582259,-2.1723838
1397,-1.2053844,-1.1060823,-1.8681962
1398,-0.71665037,-1.0100702,-1.1039885
1399,-0.5491528,-0.9669995,-0.85483587
1400,-2.295315,-3.0008986,43.96004
1401,-6.760621,-9.257831,25.191338
1402,-8.023134,-11.380264,-6.6017976
1403,-3.830909,-10.501202,-18.279669
1404,0.40677986,-7.899605,-16.610077
1405,0.80189466,-9.84467,5.256134
1406,-5.7544394,-24.141188,31.429127
1407,-1.5478572,-54.580883,69.776505
1408,-27.335606,-77.64231,47.014477
1409,-21.909582,-73.50512,-23.17389
1410,-6.3197436,-33.960434,-18.15285
1411,-6.901798,-19.476978,-1.0537393
1412,-7.47458,-11.475977,-2.0814567
1413,-6.925726,-5.6001024,0.8745767
1414,-4.403392,-1.1730813,1.3106686
1415,0.4833502,0.14446667,-0.9939187
1416,1.1183455,2.353042,-2.5869403
1417,0.689432,3.8694932,-1.3794622
1418,0.23659034,6.046962,7.5317082
1419,-0.23509483,9.422338,9.194122
1420,3.065804,15.557236,7.239485
1421,5.7152567,14.282759,6.1902323
1422,8.436495,-0.6628119,10.727323
1423,5.446962,-8.429017,10.8664055
1424,3.4680972,-9.212367,11.441281
1425,-2.0916262,-3.6571302,14.152947
1426,-2.5492535,-0.8449655,13.477275
1427,-3.315854,-2.4858437,12.931112
1428,-5.3039904,-4.9603214,12.322738
1429,-6.3221364,-5.6240306,11.206486
1430,-6.969096,-5.2046885,9.7043915
1431,-8.018349,-3.6044881,8.470891
1432,-7.6396847,-2.3682961,8.858828
1433,-6.219245,-1.6307086,8.9979105
1434,-4.3411784,-1.1659029,10.135697
1435,-3.1815567,-1.5828521,10.487741
1436,-4.089633,-2.0928226,10.6770735
1437,-5.2872405,-2.2989044,10.595717
1438,-6.4013987,-1.9133608,9.951151
1439,-7.0983086,-0.8497511,9.955936
1440,-6.8682985,-0.44955155,9.740284
1441,-6.5425754,-0.3394817,9.867402
1442,-6.5641108,-0.42562333,10.207482
1443,-7.07438,-0.55752766,10.482956
1444,-7.5009007,-0.5096712,10.250553
1445,-7.3809605,-0.24107689,10.703395
1446,-7.6588273,-0.15014961,10.358529
1447,-7.9366937,-0.34666017,11.350055
1448,-7.8314095,-0.6556334,12.222239
1449,-7.697112,-0.9071789,12.58864
1450,-7.6588273,-0.88325065,12.147762
1451,-7.7210402,-0.8593224,11.493923
1452,-7.07438,-0.93349993,10.722537
1453,-6.7678,-1.0052847,10.583754
1454,-6.53779,-1.2711871,10.250553
1455,-6.4085774,-1.2855439,10.286446
1456,-6.140282,-1.3121641,10.166804
1457,-6.0729837,-1.3241283,9.989436
1458,-6.369993,-1.5753746,10.202697
1459,-6.5928245,-1.8221345,10.147662
1460,-6.5569324,-1.8918254,9.965508
1461,-6.7295146,-1.9157536,9.4839525
1462,-6.5904317,-1.7647067,8.935398
1463,-6.178567,-1.6881363,8.983554
1464,-5.8429737,-1.678565,8.916255
1465,-5.4837513,-1.8293129,8.985947
1466,-5.910272,-1.9492532,9.2590275
1467,-5.730511,-2.097608,8.760722
1468,-5.395217,-2.0545373,8.053942
1469,-5.131707,-1.966003,7.598707
1470,-4.8849473,-2.0353947,8.542676
1471,-4.7267222,-2.3949163,8.053942
1472,-4.0944185,-2.8761728,7.73779
1473,-3.653541,-3.3792639,8.334201
1474,-3.399603,-4.176971,8.188239
1475,-3.4692938,-4.275376,7.4120674
1476,-3.8069808,-3.6858442,9.26142
1477,-4.005884,-3.2045877,9.426525
1478,-4.046562,-2.1744776,9.896116
1479,-3.7686956,-1.7886349,9.687641
1480,-3.3684962,-1.841277,10.310673
1481,-2.7242286,-2.44038,10.372886
1482,-2.3144577,-3.2859437,10.200304
1483,-2.4511478,-4.342375,10.516456
1484,-2.82712,-6.0311093,11.292627
1485,-3.3182468,-7.719844,10.959726
1486,-5.11735,-9.288938,7.548458
1487,-6.3388863,-10.486844,6.142376
1488,-6.5760746,-10.838888,3.3397822
1489,-5.553143,-10.347761,-1.2693924
1490,-5.2202415,-11.64856,-5.0709896
1491,-1.6342978,-15.129219,-6.9705915
1492,-4.0298123,-15.833607,-8.546864
1493,-4.3005004,-21.616161,-6.259026
1494,-4.1590247,-29.339296,-4.150949
1495,-3.7806597,-34.2718,-4.4144588
1496,-4.573581,-33.7041,-3.0924242
1497,-5.7687964,-28.733313,-2.740081
1498,-4.5352964,-23.405693,-1.8801605
1499,-0.7935198,-15.114862,1.7659031
1500,7.8089767,-6.24437,23.092833
1501,7.789834,-7.530811,13.666607
1502,4.7042894,-10.898709,6.2691956
1503,1.2762718,-8.029117,10.296316
1504,-10.145568,-8.273483,31.093832
1505,-13.518251,-7.7703924,18.658932
1506,-15.834803,-5.2549376,-5.619544
1507,-12.775579,-3.8488553,-5.5980086
1508,-9.532108,-2.059323,-7.128817
1509,-4.8993044,-0.9933205,-4.1632123
1510,-2.012663,0.2955136,-2.675475
1511,-0.5057829,0.6667002,-3.7295132
1512,0.13369897,0.91585284,-4.429115
1513,0.6870392,1.4500505,-4.88405
1514,2.2034905,1.8212371,-3.99063
1515,1.966302,2.3171496,-3.51386
1516,1.3432708,2.149353,-2.9509485
1517,1.2308081,1.6968104,-2.2154546
1518,1.2714862,1.5266209,-1.6286149
1519,1.3360924,1.5002998,-1.4799608
1520,1.6357933,1.6585252,-1.8586249
1521,2.3949163,2.0727825,-4.009773
1522,3.4968112,2.585445,-5.2698927
1523,3.9376888,2.5734808,-4.733302
1524,2.9362924,1.8068802,-4.3737807
1525,1.4847465,0.8488538,-4.057629
1526,0.663111,0.5371887,-2.7903304
1527,-0.4459623,0.43429732,-1.3411771
1528,-1.1144571,0.44865423,-0.6415756
1529,-1.224527,0.42711884,-0.37088752
1530,-1.0857433,0.506082,-0.5267201
1531,-1.0399805,0.4534399,-0.663111
1532,-0.90358967,0.35294133,-0.96759766
1533,-0.831805,0.30269206,-0.962812
1534,-0.86530447,0.12532409,-0.9915259
1535,-0.90119684,0.07507481,-1.0274183
1536,-0.8844471,-0.020937199,-0.84765744
1537,-0.54675996,0.072681986,-0.4668995
1538,-1.68694,0.70259255,7.574779
1539,-9.817153,-1.9899311,26.829823
1540,-12.596118,-3.8895333,8.880363
1541,-6.209674,-3.6164522,-17.208881
1542,1.4991034,-5.113761,-15.0170555
1543,2.7999015,-4.0908294,-10.1016
1544,-2.3742783,-7.1138616,-0.13609178
1545,-31.345678,-67.7106,78.709206
1546,-72.55068,-77.65906,46.808395
1547,-0.91555375,-74.52566,-19.705194
1548,5.5019965,-23.585455,-34.39174
1549,10.455738,-14.884852,-34.799118
1550,5.988338,-9.049356,-23.422743
1551,2.0739791,-5.8393846,-16.33221
1552,1.8272192,-0.39690945,-5.7248282
1553,7.0806613,6.2530437,21.317957
1554,4.7688956,7.3692956,13.781761
1555,1.911267,5.608477,3.7660038
1556,0.9696914,3.9029927,1.5957136
1557,1.4249259,2.4634109,2.973082
1558,0.35174492,2.9760733,7.443174
1559,1.5278172,3.275475,16.816757
1560,5.942874,1.4213367,12.931112
1561,7.64118,-0.83060855,7.934301
1562,6.1151576,-5.6264234,9.967901
1563,0.22462623,-7.2290163,8.827721
1564,-3.6032917,-5.048856,6.3891354
1565,-4.92084,-3.2476585,3.5814574
1566,-6.559325,-1.2472588,4.903791
1567,-7.9654074,-1.3528421,9.117552
1568,-6.573682,-3.6786656,9.165408
1569,-5.541179,-4.8765726,9.002696
1570,-3.8524444,-6.3400826,8.705687
1571,-4.008277,-5.6479588,9.778868
1572,-5.3593245,-4.5652065,10.655539
1573,-5.7927246,-3.649952,10.634003
1574,-5.272884,-1.5299109,10.554741
1575,-3.124129,-1.7168503,9.788439
1576,-2.245066,-2.373082,10.557134
1577,-1.8786649,-3.0702906,10.233804
1578,-2.7505496,-2.8187451,10.128519
1579,-3.5147574,-1.5179468,10.459028
1580,-4.6669016,-0.79710907,10.502099
1581,-6.5928245,-0.37776688,9.282955
1582,-8.109276,-0.5192425,9.263813
1583,-8.674581,-0.98853487,9.977472
1584,-8.255239,-1.0606186,10.288838
1585,-7.8314095,-0.9933205,10.461421
1586,-7.5774713,-0.57906306,10.444671
1587,-7.596614,-0.5192425,10.593325
1588,-7.392925,-0.41605204,10.468599
1589,-7.1078796,-0.42083767,10.353744
1590,-7.0839515,-0.4543372,10.720144
1591,-7.1342006,-0.6197411,10.9788685
1592,-7.318747,-0.8593224,10.871191
1593,-7.512865,-1.0893325,11.117951
1594,-7.373782,-1.1850454,11.35484
1595,-7.2589264,-1.2999009,12.083157
1596,-7.24457,-1.4413766,12.317952
1597,-7.0337024,-1.5203397,11.752647
1598,-7.1581287,-1.7527425,11.5106735
1599,-7.2469625,-1.9277177,11.417354
1600,-7.0983086,-2.3829522,11.172986
1601,-7.079166,-2.5002005,11.326127
1602,-6.5832534,-2.44038,10.698609
1603,-6.149853,-2.018645,9.725926
1604,-5.919843,-1.7096717,9.040981
1605,-5.7209396,-1.3983058,8.413164
1606,-5.519644,-1.355235,7.2753773
1607,-5.816653,-1.2329018,7.615457
1608,-5.826224,-1.2520444,7.9127655
1609,-5.3449674,-1.4844474,7.4383883
1610,-5.488537,-1.9181465,7.579565
1611,-5.009374,-2.7062824,7.155736
1612,-5.1149573,-3.5901313,7.1485577
1613,-4.9782677,-4.1697927,7.253842
1614,-4.5951166,-4.9028935,6.990332
1615,-4.1518464,-5.449055,7.0597243
1616,-3.8404803,-5.235795,7.5939217
1617,-3.8261235,-4.536493,8.06112
1618,-3.9290147,-3.5853457,9.060123
1619,-3.7710886,-2.885744,9.721141
1620,-3.5482569,-2.478665,9.373882
1621,-2.865405,-2.6512475,8.583354
1622,-2.4678974,-3.051148,8.549854
1623,-2.5396821,-3.9804604,7.6660056
1624,-2.812763,-5.0009995,7.656434
1625,-3.0930223,-6.378368,9.033803
1626,-3.682255,-8.098508,10.684252
1627,-5.3353963,-9.734601,8.983554
1628,-5.692226,-11.2343025,4.5206404
1629,-4.712365,-11.241481,0.91525465
1630,-5.6204414,-11.0019,-3.9044883
1631,-4.4799623,-12.264113,-6.0026946
1632,-3.830909,-19.067507,-6.800402
1633,-6.219245,-23.14697,-4.726124
1634,-4.8418765,-31.682169,-4.8601217
1635,-4.237988,-39.76931,-4.223033
1636,-4.369892,-38.92614,-3.312564
1637,-5.8214383,-32.532516,-3.2671003
1638,-3.9649072,-24.981966,-2.5989046
1639,1.5684953,-16.631313,2.0222342
1640,9.0233345,-7.6624165,18.17977
1641,9.991231,-8.218149,17.683857
1642,8.800503,-9.672387,15.25245
1643,-0.23030917,-3.2500513,35.89204
1644,-10.097412,-5.1400824,24.226133
1645,-13.259527,-7.056434,5.826224
1646,-7.3402824,-6.8001027,-12.5019
1647,-3.682255,-5.6120663,-10.11835
1648,-1.3277174,-3.5350964,-8.319246
1649,0.0738784,-1.6307086,-6.8339014
1650,0.87158567,0.41754755,-4.886443
1651,0.7468598,1.3277174,-2.306681
1652,-0.2641078,2.0368903,-1.0944172
1653,-0.1585245,2.096711,-0.5769694
1654,-0.66161543,1.8475581,-0.13848461
1655,-0.90119684,1.9124635,-0.45254257
1656,-1.4976078,1.7470596,-0.6367899
1657,-1.4569299,1.7183458,-0.45972106
1658,-1.4210376,1.3588241,-1.015454
1659,-1.6175481,1.809273,-2.9222345
1660,-1.753939,2.2621148,-5.5477595
1661,-1.0136595,2.96381,-7.979166
1662,-0.9610174,3.0622149,-7.4138618
1663,-0.44835514,3.1962128,-6.0891356
1664,-0.32153556,2.5710878,-5.4924254
1665,-0.8676973,2.245365,-3.691228
1666,-1.3683954,1.9842482,-2.725724
1667,-1.9217356,1.6295122,-2.0694926
1668,-2.077269,1.1434702,-0.9484551
1669,-1.8978075,1.0115658,-0.033200413
1670,-1.7515461,0.9445667,0.34037903
1671,-1.8424734,0.8222337,0.23988047
1672,-1.864308,0.63559353,0.26141587
1673,-1.5936198,0.5877371,0.31405798
1674,-0.9299107,0.602094,0.3714857
1675,-1.0208379,0.48454657,0.3786642
1676,-0.97537434,0.3792624,0.50099725
1677,-0.6113662,0.37447673,0.6445666
1678,0.15284155,-0.41844487,15.822539
1679,1.2954143,-1.8726828,21.056839
1680,0.35413775,-3.293122,11.242378
1681,-4.1231327,-5.621638,-6.7501526
1682,-5.512465,-7.099505,-15.14896
1683,-0.4866403,-5.118547,-10.959127
1684,-0.06999006,-4.6345983,-6.113064
1685,-10.408778,-18.827925,26.686255
1686,-31.709686,-77.65906,78.709206
1687,-44.698227,-77.65906,58.898434
1688,-12.641582,-77.65906,3.0496526
1689,1.8798612,-30.276085,-29.509785
1690,7.3633137,-18.001503,-26.92763
1691,4.6755753,-11.512169,-13.850554
1692,0.29671,-4.39741,0.4651049
1693,-1.3277174,0.357727,13.398312
1694,-2.352743,1.3710874,6.4537416
1695,-0.093918286,0.5395815,-2.725724
1696,0.93619186,1.3564314,-4.8194437
1697,-0.0029910284,2.6668007,-4.1126637
1698,-0.21834506,2.8345976,-2.9748766
1699,1.0271192,6.6218376,11.711969
1700,0.933799,9.970892,15.5183525
1701,1.0007981,11.240284,14.054842
1702,1.7051853,-2.2031915,17.612072
1703,4.495815,-14.662021,15.487246
1704,3.882654,-17.778673,8.128119
1705,-1.6582261,-13.493127,5.838188
1706,-3.0523443,-2.454737,6.681359
1707,-3.382853,5.9847484,7.4647093
1708,-3.6200416,4.9666023,9.412168
1709,-3.6056845,1.2008978,10.039985
1710,-3.4019957,-1.8583258,9.891331
1711,-3.5410783,-3.0583265,9.81476
1712,-4.56401,-3.2859437,11.606386
1713,-5.723333,-4.4117665,12.198311
1714,-5.783153,-4.7709894,11.845967
1715,-4.8251266,-3.7770705,11.120344
1716,-3.8955152,-3.2213376,11.194522
1717,-2.3814569,-2.006681,10.193126
1718,-2.7553353,-0.6580262,8.446963
1719,-5.1556354,-0.3394817,8.839685
1720,-6.159425,-0.2868396,8.528319
1721,-6.700801,-0.51445687,9.44806
1722,-6.52104,-0.9167502,9.900902
1723,-6.341279,-0.9239286,10.116555
1724,-6.0658054,-0.7851449,9.886545
1725,-6.224031,-0.6221339,9.505787
1726,-6.2551374,-0.74416786,10.106984
1727,-6.1160545,-0.9023932,10.789536
1728,-5.8190455,-0.878465,10.976476
1729,-5.3569317,-0.60059845,10.815858
1730,-5.081458,-0.26051855,10.942976
1731,-5.311169,-0.23389842,11.048261
1732,-5.8286166,-0.6412765,11.855539
1733,-6.3939214,-1.1443675,12.617353
1734,-6.7151575,-1.5370895,11.867503
1735,-6.5641108,-1.5753746,10.887941
1736,-6.348458,-1.3121641,10.315458
1737,-5.9342003,-1.2137593,9.970294
1738,-5.7209396,-1.4030914,9.903295
1739,-5.8022957,-1.8655044,10.470992
1740,-5.946164,-2.385345,10.567004
1741,-6.0107703,-2.5767708,10.744073
1742,-6.176174,-2.5648067,10.451849
1743,-6.3197436,-2.4427729,10.028021
1744,-6.314958,-2.3635106,9.364311
1745,-6.0394845,-1.8678972,8.497212
1746,-5.36411,-1.7048861,7.5604224
1747,-4.9495535,-1.9205393,8.360522
1748,-4.590331,-2.5408785,8.66471
1749,-4.4967117,-2.7445676,8.683852
1750,-3.9050865,-4.124329,8.142476
1751,-3.9720855,-4.7374897,8.439785
1752,-3.8811584,-5.1089754,8.58814
1753,-4.3411784,-4.914858,8.221739
1754,-4.362714,-4.1458645,9.292527
1755,-4.099204,-3.441477,10.085448
1756,-3.370889,-2.6413772,10.382458
1757,-2.812763,-2.3276181,11.1682005
1758,-2.458326,-2.5241287,11.043475
1759,-2.2235305,-3.0559337,11.889038
1760,-2.3383858,-3.6954155,12.097513
1761,-2.2737796,-5.1759744,11.376676
1762,-1.9289142,-6.105287,9.71157
1763,-1.9049859,-7.152147,8.233703
1764,-2.4224339,-7.494919,7.426424
1765,-3.2871401,-7.9283185,4.6115675
1766,-3.5769708,-7.679166,0.5775676
1767,-4.0920258,-8.258827,-1.5568303
1768,-3.5769708,-9.466306,-3.3053854
1769,-4.1111684,-12.113365,-3.865904
1770,-5.421538,-17.883957,-6.597012
1771,-5.622834,-24.107689,-6.7405815
1772,-5.026124,-40.576588,-6.7645097
1773,-5.1771708,-41.518166,-6.4555364
1774,-4.875376,-33.52913,-6.2374907
1775,-4.3794637,-27.315268,-4.6492543
1776,-3.6080775,-21.280867,-3.3053854
1777,-2.2115662,-16.025032,-1.777269
1778,0.15044872,-7.9331045,8.722437
1779,1.8822541,-1.5490535,29.031519
1780,-1.2723835,-5.5854464,16.967505
1781,-4.039384,-7.799106,7.1078796
1782,-7.591828,-7.502097,8.700901
1783,-12.835699,-7.70788,13.376776
1784,-13.199707,-7.842177,7.4120674
1785,-11.843874,-6.8001027,-1.4201403
1786,-7.4697943,-4.3112683,-0.22253251
1787,-4.281358,-1.434198,-2.1628125
1788,-3.1025937,-0.020937199,-4.136592
1789,-1.1766706,0.92303133,-3.9212382
1790,-0.68075806,0.8222337,-3.74387
1791,-0.31196424,0.9206385,-4.2038903
1792,0.1480559,1.1386845,-2.891128
1793,0.8210373,1.5194423,-1.8801605
1794,1.0917253,2.1661026,-2.6826532
1795,2.2704897,2.286043,-2.5339992
1796,2.5052853,2.3051856,-2.3018954
1797,2.672783,1.7662022,-2.699403
1798,3.51386,1.8164514,-5.4349976
1799,5.233701,2.7053852,-9.569795
1800,6.719046,3.1387851,-9.710972
1801,5.145167,2.0416758,-7.62443
1802,2.847758,1.4859428,-4.5224347
1803,2.0811574,1.2487543,-4.223033
1804,1.4679967,1.061815,-3.5497525
1805,0.90029955,0.86081797,-2.4502504
1806,0.4354937,0.68823564,-2.0117657
1807,0.07148558,0.52522457,-1.8203398
1808,-0.49381876,0.23539393,-1.1853445
1809,-0.7692925,0.122931264,-1.1853445
1810,-0.90119684,-0.071186475,-1.451247
1811,-1.3683954,-0.17647067,-1.5520446
1812,-1.998306,-0.6580262,-2.1364915
1813,-1.9743778,-0.8952148,-2.225026
1814,-1.9743778,-0.93589276,-2.2010977
1815,-1.2843475,-0.8808578,-0.8237292
1816,-1.0088738,-0.74895346,-0.22253251
1817,-3.735196,-2.8474588,39.514175
1818,-5.1388855,-12.254542,53.779285
1819,-9.203992,-17.531912,7.023832
1820,-11.939587,-18.43251,-23.382065
1821,-6.2790656,-14.947065,-17.431713
1822,-5.9246287,-15.24916,-12.420245
1823,-10.152746,-46.855354,51.32874
1824,-8.942876,-70.2784,22.125235
1825,-5.215456,-61.465332,5.601
1826,1.7650058,-44.62016,4.8008995
1827,-2.4990041,-31.354052,-0.91465646
1828,-10.155139,-20.272293,-1.5879369
1829,-9.141779,-11.991033,-0.90508515
1830,-7.0097737,-5.4873405,-2.3952155
1831,-4.942375,-2.30369,-4.3905306
1832,-3.2991042,0.30269206,0.51056856
1833,-2.3985057,1.3444673,5.811867
1834,-1.2149557,1.2990036,6.422635
1835,0.020937199,1.0378869,6.61436
1836,-0.4459623,1.0402796,7.7736826
1837,1.4321043,3.0311081,13.27867
1838,4.9007998,2.5088747,8.856435
1839,6.026623,-0.035294134,9.210872
1840,4.7210393,-3.8201413,11.012368
1841,1.4416757,-6.196513,10.641181
1842,-1.7515461,-5.386842,10.672288
1843,-2.757728,-2.2606192,9.725926
1844,-2.882155,-0.68195444,6.5688963
1845,-3.531507,-0.20757736,6.2548385
1846,-5.1867423,0.23060828,7.129415
1847,-6.7630143,-0.111864455,9.201301
1848,-7.55115,-1.3094722,9.337991
1849,-6.8276205,-2.0114665,10.818251
1850,-5.122136,-1.5586249,9.920045
1851,-3.4692938,-1.1300105,9.44806
1852,-2.664408,-1.4916258,9.522537
1853,-2.7960134,-1.599602,10.164412
1854,-4.036991,-1.8005991,10.459028
1855,-5.110172,-1.096511,9.876974
1856,-5.651548,-0.59581286,10.066306
1857,-6.5162544,-0.29162526,9.381062
1858,-7.8553376,-0.33469605,9.44806
1859,-8.047063,-0.66999036,9.206086
1860,-7.3163543,-0.8353942,8.870791
1861,-6.899405,-0.878465,9.170194
1862,-6.0394845,-0.57427746,10.41835
1863,-5.58425,-0.5910272,11.098808
1864,-5.38086,-0.5288138,11.278271
1865,-5.519644,-0.47108695,11.398211
1866,-6.142675,-0.5479564,11.767004
1867,-6.477969,-0.2533401,11.973086
1868,-6.2048883,-0.07597212,11.584851
1869,-6.3508506,-0.0017946169,11.764611
1870,-6.27428,0.16121642,11.172986
1871,-6.317351,-0.01375873,11.275878
1872,-6.369993,-0.37776688,11.719148
1873,-6.399006,-0.71306115,10.969297
1874,-6.547361,-0.74177504,10.952547
1875,-6.5904317,-0.79710907,10.698609
1876,-6.4588265,-0.70348984,10.310673
1877,-6.3891354,-0.6771688,10.6770735
1878,-6.003592,-0.7680961,9.737891
1879,-5.8597236,-0.8258229,9.87458
1880,-5.5914283,-1.0220344,9.860224
1881,-5.471787,-1.2113664,10.04477
1882,-5.3039904,-1.4150555,10.257731
1883,-5.0452666,-1.7647067,10.329815
1884,-4.6262236,-1.9588244,10.173983
1885,-4.1781673,-1.7336,9.690035
1886,-3.6918263,-1.244866,8.727222
1887,-3.3876386,-1.0534402,8.298309
1888,-3.2440693,-1.4916258,9.210872
1889,-3.6559339,-2.196013,9.7908325
1890,-3.9074793,-2.943471,9.052945
1891,-4.21406,-3.5063825,8.55464
1892,-4.4895334,-3.8153558,8.454142
1893,-4.796413,-3.9565322,8.705687
1894,-4.8011985,-3.7049868,8.810971
1895,-4.491926,-3.5063825,8.389236
1896,-4.0106697,-3.242873,8.202596
1897,-3.5985062,-3.161218,8.293523
1898,-3.2440693,-3.4390843,8.525927
1899,-3.0379875,-4.200899,9.21805
1900,-2.9012976,-5.142475,9.000303
1901,-3.0810583,-5.8393846,7.7497544
1902,-3.138486,-7.082755,8.679067
1903,-3.5123646,-8.005188,7.9462647
1904,-3.8524444,-9.696316,8.348558
1905,-4.6022954,-10.963614,7.2658057
1906,-5.8453665,-11.576775,6.5688963
1907,-5.922236,-12.189936,6.283851
1908,-5.8094745,-11.866606,3.4307094
1909,-5.488537,-11.806786,0.8673982
1910,-3.7256248,-13.473985,-0.541077
1911,-5.577071,-16.583458,-2.0958135
1912,-5.665905,-18.614664,-3.4372897
1913,-4.781757,-23.49662,-4.0480576
1914,-3.679862,-28.999216,-3.5306098
1915,-1.7156538,-32.369804,-2.7352953
1916,0.10737792,-29.602806,-2.1628125
1917,-1.5936198,-26.251657,-2.7520452
1918,-1.5502499,-21.537199,-2.6970103
1919,2.4020948,-11.715559,7.0022964
1920,7.042376,-4.0477586,26.566313
1921,6.6038914,-7.545168,14.335101
1922,5.0539403,-11.097612,6.702894
1923,4.265805,-8.50798,6.341279
1924,-4.4321055,-6.33769,27.004799
1925,-6.8659053,-4.8215375,16.9364
1926,-7.153343,-5.2142596,1.4015958
1927,-11.027024,-4.9938207,-9.5048895
1928,-10.267602,-4.0812583,-8.740981
1929,-8.741579,-2.9072795,-6.187241
1930,-6.9858456,-0.92153585,-3.6744783
1931,-5.5651073,0.9804591,-2.7735806
1932,-4.8442693,1.4476577,-1.518545
1933,-4.42732,2.2477577,-0.14596218
1934,-3.9864426,2.6548367,0.4651049
1935,-3.263212,2.6333013,0.009870393
1936,-2.1637099,2.2908285,-0.541077
1937,-2.5636103,2.0536401,-0.7304091
1938,-1.3420744,1.4691931,-1.302892
1939,-1.5454643,1.6319051,-1.8825532
1940,-1.6510476,2.2142582,-3.3846476
1941,-1.7898313,2.544767,-4.9199424
1942,-1.4186447,2.868097,-5.959624
1943,-0.7190432,2.7843482,-5.6267223
1944,0.04516453,2.748456,-4.8936214
1945,0.9290134,2.2884357,-3.5042887
1946,0.9290134,2.2884357,-3.5042887
1947,1.3480564,1.5409778,-1.1015958
1948,1.2355938,1.2631112,-0.60807604
1949,0.72293156,0.64277196,-0.33499518
1950,0.52163535,0.41515473,-0.33499518
1951,0.32303107,0.28803602,-0.4884349
1952,0.21505493,0.18514465,-0.622433
1953,0.17676978,0.13968103,-0.72083783
1954,0.1911267,0.09421739,-0.81655073
1955,0.20309082,-0.011365907,-0.81894356
1956,0.21984059,-0.09990034,-0.83090764
1957,0.3493521,-0.23868406,-0.78783685
1958,2.8022945,-1.5203397,28.284061
1959,0.69182485,-7.205088,34.100117
1960,-3.260819,-9.753743,11.72872
1961,-8.030313,-10.709676,-8.697611
1962,2.251347,-8.2348995,-18.737297
1963,6.0290155,-5.7341003,-13.939089
1964,0.37567315,-6.285048,-7.140781
1965,-10.586146,-17.057535,17.98326
1966,-38.754753,-77.65906,78.02187
1967,-38.108093,-77.654274,-10.336395
1968,5.68415,-43.36034,-23.609682
1969,7.9740815,-20.818455,-27.224638
1970,2.6775684,-9.12144,-14.207384
1971,1.8224336,-4.042973,-6.2374907
1972,-0.6520442,0.00059820566,6.2524457
1973,-3.2368908,4.7892346,16.81915
1974,-2.9084759,2.7723842,9.247063
1975,-3.0332017,0.9517452,1.0232308
1976,-4.2044883,-0.32033914,0.9586246
1977,-2.800799,-0.64606214,5.715855
1978,0.13609178,1.6247265,10.653146
1979,-1.3157533,0.20428723,8.466105
1980,-0.6305088,-4.342375,6.2548385
1981,4.651647,-6.9726853,10.164412
1982,7.313064,-9.152547,10.095019
1983,4.572385,-9.533304,11.290235
1984,1.3025929,-8.577671,11.946765
1985,-1.6630118,-5.928218,10.892727
1986,0.4354937,-2.2582264,6.9951177
1987,2.1747768,1.0378869,5.9985075
1988,0.23898315,4.046861,6.693323
1989,-3.5482569,3.3400812,7.9223366
1990,-5.5076795,2.0225334,8.16431
1991,-6.413363,0.98524475,8.66471
1992,-7.318747,-0.34666017,9.872188
1993,-6.571289,-1.8436699,9.1414795
1994,-3.5745778,-3.3720853,8.413164
1995,-1.9624137,-3.6427734,8.449356
1996,-0.6448657,-2.8259234,9.440882
1997,-0.6879365,-1.489233,9.766904
1998,-1.1910275,-1.1252248,9.460024
1999,-4.2717867,0.76719874,8.906684
2000,-5.4550376,0.78634137,8.89472
2001,-5.962914,-0.028115666,9.174979
2002,-5.8357954,-0.701097,9.139087
2003,-5.4574304,-1.1850454,9.92483
2004,-5.215456,-0.97178507,9.46481
2005,-5.47418,-0.5288138,9.680463
2006,-5.895915,0.19710876,9.625428
2007,-5.8046885,0.48454657,9.65175
2008,-5.9820566,0.38644084,9.658928
2009,-6.3125653,0.180359,10.145268
2010,-6.068198,-0.13100705,10.325029
2011,-5.977271,-0.21475583,10.315458
2012,-6.302994,-0.12143575,10.212268
2013,-6.5497537,0.0029910284,10.736895
2014,-6.235995,0.28085756,10.744073
2015,-6.084948,0.5204389,10.9070835
2016,-5.879165,0.64995044,11.141879
2017,-5.790332,0.5709873,10.974083
2018,-5.8672013,0.6308079,11.06501
2019,-5.816653,0.29042885,11.393425
2020,-5.675476,0.13250256,11.177772
2021,-5.708976,0.20189442,10.70818
2022,-5.838188,0.20668006,10.849656
2023,-5.7544394,0.16600206,10.8664055
2024,-5.9700923,-0.054436713,11.479567
2025,-6.0370917,-0.389731,11.807682
2026,-6.087341,-0.8856435,11.9204445
2027,-5.706583,-1.2329018,11.144273
2028,-5.488537,-1.4006985,10.63161
2029,-5.435895,-1.4724833,9.965508
2030,-5.4311094,-1.5203397,9.32124
2031,-5.8094745,-1.6689938,8.969196
2032,-5.9174504,-1.9492532,9.210872
2033,-5.8624153,-2.5767708,9.766904
2034,-5.36411,-2.9937203,9.544072
2035,-4.540082,-3.2380872,9.198908
2036,-3.8644085,-3.4151561,8.844471
2037,-3.39721,-3.431906,8.796615
2038,-3.4187453,-3.441477,8.803793
2039,-3.4836507,-3.4800615,9.215657
2040,-3.4669008,-3.4537404,9.505787
2041,-3.3565319,-3.4390843,9.060123
2042,-3.140879,-3.2907293,8.442178
2043,-3.222534,-3.185445,8.7679
2044,-2.8606195,-3.24048,9.433703
2045,-2.6258237,-3.6906297,9.469596
2046,-2.079662,-4.711169,8.485249
2047,-1.3301103,-5.2956157,6.683752
2048,-1.5047864,-5.3051867,8.185846
2049,-1.7587247,-5.425127,7.878967
2050,-2.513361,-5.983253,7.982157
2051,-3.8333018,-7.1545396,8.981161
2052,-5.823831,-8.936893,9.266206
2053,-6.760621,-10.007682,8.2049885
2054,-8.444571,-11.799606,4.7482576
2055,-8.219346,-13.34208,3.0113673
2056,-8.466105,-15.8766775,-1.2167503
2057,-5.922236,-17.23251,-1.8394824
2058,-5.962914,-18.281763,-3.324528
2059,-4.1638107,-21.41038,-2.0141585
2060,-5.519644,-27.269505,-3.8300118
2061,-4.961518,-29.370403,-3.772584
2062,-4.820341,-30.798319,-3.353242
2063,-5.0452666,-26.852854,-2.2465613
2064,-5.098208,-22.672592,-2.8432715
2065,-3.1767712,-18.31287,-0.40917268
2066,1.8535402,-11.277373,9.057731
2067,8.735896,-2.1023939,29.886654
2068,4.141378,-6.730711,8.355737
2069,1.8343977,-8.867501,2.1011975
2070,1.1542379,-7.734201,1.5023935
2071,-1.2317054,-6.5724854,5.1026945
2072,-12.200704,-5.2429733,20.991934
2073,-11.074881,-4.603492,0.3786642
2074,-9.242277,-3.9951165,-5.401498
2075,-6.3604217,-3.6116667,-7.018448
2076,-4.7988057,-1.8388842,-5.94766
2077,-1.8161523,-0.011365907,-3.1378877
2078,-0.7429714,0.8536395,-1.9567307
2079,-0.5300102,1.2415758,-1.6525432
2080,-0.573081,1.3636098,-1.4440684
2081,-0.6975078,1.4261223,-1.3890336
2082,-0.6855437,1.3372887,-1.5807585
2083,-0.7118647,1.2678969,-1.1709876
2084,-0.74536425,1.2750753,-0.89312106
2085,-0.73340017,1.1434702,-0.91465646
2086,-0.8676973,1.2702898,-1.5352948
2087,-1.2436695,1.3588241,-3.458825
2088,-1.1766706,1.919642,-6.0436716
2089,-0.63529444,2.350649,-8.642576
2090,-1.6534405,1.7374884,-8.690433
2091,-1.6534405,1.7374884,-8.690433
2092,-1.8448663,1.6007984,-6.0891356
2093,-2.0964117,1.3878372,-3.9882371
2094,-2.1828525,1.2870395,-1.9926231
2095,-2.1302104,1.0378869,-0.96520483
2096,-2.0222342,0.80787677,-0.14327025
2097,-1.4928222,0.43669012,0.46989053
2098,-1.0016954,0.2641078,0.6349953
2099,-0.8341978,0.07507481,0.5703891
2100,-0.6831509,-0.123828575,0.4962116
2101,-0.48185465,-0.123828575,0.33080772
2102,-0.029312078,-0.044865426,0.024227329
2103,0.4761717,0.032004002,-0.19142582
2104,0.84765744,0.060717873,-0.2105684
2105,1.422533,-0.111864455,3.3373895
2106,2.2824538,-6.66102,33.819855
2107,1.0677971,-8.757133,20.122442
2108,-0.8844471,-7.8182487,-20.284855
2109,2.4861426,-5.6527443,-15.383457
2110,2.8405795,-4.9172506,-7.9767733
2111,-10.106984,-29.8376,34.217663
2112,-14.337494,-77.65906,78.709206
2113,-36.987057,-77.65906,29.021648
2114,-9.879665,-68.22326,-13.189239
2115,-4.415356,-27.552456,-28.841589
2116,-4.139882,-8.62792,-14.269598
2117,-4.0202413,-3.309872,-6.989734
2118,-6.6816583,0.14925231,-1.4201403
2119,-7.730612,3.3664024,3.5240295
2120,-5.8214383,5.230112,4.971089
2121,-4.6956153,5.802595,3.6583266
2122,-4.7339005,5.692525,4.024728
2123,-3.6391842,4.1832523,2.4149563
2124,-4.147061,2.3721845,2.5202405
2125,-2.923132,2.1879373,11.666506
2126,-0.04366901,0.19710876,22.103699
2127,-0.3167499,-3.6355948,18.268303
2128,2.3781667,-9.456735,7.89123
2129,8.570493,-9.593125,14.905191
2130,9.279665,-8.254042,11.072188
2131,3.403491,-4.502694,6.8395844
2132,-1.5693926,0.15643078,5.488537
2133,-2.8031917,2.841776,6.7148585
2134,-2.0150557,2.3721845,7.581958
2135,-3.5506496,0.027218357,10.250553
2136,-4.6669016,-2.1720848,9.898509
2137,-5.4239306,-3.7914274,8.614461
2138,-7.2326055,-4.1554356,9.38824
2139,-7.9103727,-3.9445682,10.0830555
2140,-7.4599237,-3.7674992,10.715359
2141,-4.6788654,-3.5829527,9.953544
2142,-1.9791634,-2.9315069,9.948758
2143,-1.483251,-2.6054847,9.395418
2144,-1.5335002,-2.2223341,9.471989
2145,-3.99392,-1.0773684,9.680463
2146,-5.5675,-0.35383865,9.929616
2147,-6.18096,-0.6963114,9.996614
2148,-6.0753765,-1.2664014,9.165408
2149,-5.5244293,-1.4796617,9.29492
2150,-5.4239306,-1.4461622,8.906684
2151,-5.0333023,-1.2113664,9.160623
2152,-5.395217,-0.9287143,9.409775
2153,-5.6970115,-0.8425727,10.039985
2154,-6.0011992,-0.8425727,10.499705
2155,-5.8672013,-0.81864446,10.392029
2156,-5.871987,-0.552742,10.200304
2157,-5.879165,-0.2940181,10.140483
2158,-5.773582,0.027218357,10.353744
2159,-5.649155,-0.09990034,10.653146
2160,-5.708976,-0.23868406,10.799108
2161,-6.058627,-0.45673,10.578968
2162,-6.494719,-0.5982057,10.557134
2163,-6.5760746,-0.64606214,10.794322
2164,-6.5162544,-0.61016977,10.542776
2165,-6.6574306,-0.8952148,10.5741825
2166,-6.8635125,-0.87607217,10.411171
2167,-6.99781,-1.0339985,9.999007
2168,-7.119844,-1.1371889,9.900902
2169,-6.9499536,-1.3241283,9.342776
2170,-6.518647,-1.4222339,9.436096
2171,-6.381957,-1.556232,9.701999
2172,-6.1450677,-1.6067804,9.467203
2173,-6.0323057,-1.774278,9.84826
2174,-5.8672013,-1.8918254,9.826724
2175,-5.6730833,-1.9803598,9.692428
2176,-5.7257257,-2.0353947,9.613464
2177,-5.5914283,-2.0760727,9.498609
2178,-5.3449674,-2.1601207,9.12473
2179,-5.009374,-2.3228326,8.916255
2180,-4.7267222,-2.574378,9.112766
2181,-4.403392,-2.7900312,9.268599
2182,-4.322036,-3.2356944,8.868399
2183,-4.276572,-3.716951,8.930613
2184,-4.1255255,-4.1386857,8.523534
2185,-4.4057846,-4.4404807,8.63121
2186,-4.5975094,-4.3686957,8.940184
2187,-4.820341,-3.9828532,8.442178
2188,-4.779364,-3.2069805,8.466105
2189,-4.3794637,-2.318047,9.263813
2190,-4.034598,-1.585245,9.666106
2191,-3.6224344,-1.1874382,9.656535
2192,-3.4597225,-1.1395818,9.740284
2193,-2.7385855,-1.448555,10.293923
2194,-2.3814569,-2.4092734,9.735498
2195,-1.9743778,-3.3577285,9.148658
2196,-1.7036897,-4.471587,9.254242
2197,-1.7706888,-5.3676996,9.306884
2198,-2.3575284,-6.1124654,9.2590275
2199,-3.2584262,-7.183254,9.35474
2200,-4.080062,-7.9857464,8.29113
