,ax,ay,az
501,-5.0958147,-1.8053846,7.9534435
502,-6.0514483,-0.39451665,12.260524
503,-4.8562336,-0.89282197,9.361918
504,-3.5650067,-1.747957,6.4465632
505,-0.85094756,-2.0617158,7.605886
506,1.6908283,-3.3338,6.683752
507,2.3925235,-4.019045,4.328915
508,3.1902308,-5.9210396,6.3197436
509,1.7650058,-9.30808,10.600503
510,0.622433,-10.668699,9.52493
511,-1.9193429,-11.068898,9.170194
512,-3.612863,-10.505987,10.286446
513,-2.9997022,-8.927322,9.996614
514,-1.864308,-7.341479,8.269595
515,-1.0977074,-5.6407804,7.29452
516,-1.2604194,-4.026223,6.6717877
517,-1.9552352,-1.6857436,6.111269
518,-2.2331018,-1.3528421,6.506384
519,-3.179164,-0.6197411,6.949654
520,-3.3254254,-0.5168497,7.196414
521,-3.39721,-0.389731,7.1772714
522,-3.667898,-0.50458646,7.5676007
523,-3.5147574,-0.45194438,8.068299
524,-2.7266214,-1.2927225,7.6348987
525,-1.9241285,-1.8005991,7.498209
526,-1.8930218,-1.9205393,7.7976108
527,-1.6031911,-2.196013,8.157132
528,-1.442573,-2.4116662,8.405986
529,-1.3444673,-2.2007985,8.377272
530,-1.1694921,-1.8942182,8.135298
531,-1.7922242,-1.9851454,8.842078
532,-1.9384855,-2.3347967,8.962018
533,-2.4487548,-3.01047,8.870791
534,-2.8151557,-3.7746778,8.568997
535,-3.3924243,-3.784249,8.53789
536,-3.6726837,-3.5470605,8.463713
537,-2.9973094,-2.885744,8.703294
538,-2.990131,-2.5313072,8.437391
539,-2.9685955,-2.4212375,8.676674
540,-2.4894328,-2.603092,8.880363
541,-2.9303105,-2.9315069,8.962018
542,-3.8548372,-3.2380872,9.316455
543,-3.9338005,-3.118147,9.210872
544,-4.424927,-2.6632116,9.12473
545,-4.58076,-2.3012972,9.002696
546,-4.942375,-2.0545373,8.873184
547,-4.705187,-1.7647067,8.597711
548,-4.4967117,-1.7096717,8.516355
549,-4.0848475,-1.6187445,8.985947
550,-3.9290147,-1.8101703,9.263813
551,-3.8380876,-1.841277,9.5919285
552,-4.3172503,-1.9061823,9.817153
553,-4.779364,-1.6402799,10.114162
554,-4.7434716,-1.4222339,10.380065
555,-4.664509,-1.3887345,10.595717
556,-4.604688,-1.6235301,10.691431
557,-4.9256253,-2.0138593,11.196915
558,-5.026124,-2.1649063,11.029118
559,-5.3015976,-1.9971097,11.237593
560,-5.5794644,-2.044966,11.594422
561,-5.6706905,-2.0114665,11.053046
562,-5.919843,-1.8245273,10.995618
563,-5.869594,-1.7814565,11.292627
564,-5.749654,-1.5948163,11.177772
565,-5.7209396,-1.4700904,11.033903
566,-5.7616177,-1.6019948,11.441281
567,-5.732904,-1.8750757,11.216057
568,-5.749654,-1.9085752,11.0913315
569,-5.689833,-1.937289,11.074581
570,-5.517251,-1.9205393,10.89512
571,-5.3015976,-1.7982062,10.705788
572,-5.1006007,-1.7001005,10.787144
573,-5.0476594,-1.6857436,10.8352995
574,-4.81077,-1.692922,10.533205
575,-4.35075,-1.4198412,10.185946
576,-4.221238,-1.3671991,10.133305
577,-4.036991,-1.3022938,9.81476
578,-4.08724,-1.1324034,9.419347
579,-4.099204,-1.0339985,9.304491
580,-4.154239,-0.93349993,9.206086
581,-4.235595,-0.919143,10.11177
582,-4.173382,-1.0316057,9.088838
583,-4.0513477,-1.2161521,8.873184
584,-4.360321,-1.6115661,9.493823
585,-4.6908298,-1.9492532,8.990732
586,-5.067101,-2.1649063,9.072088
587,-5.2537413,-1.8726828,9.539287
588,-5.0069814,-1.2903296,10.185946
589,-4.5951166,-0.79471624,10.356136
590,-4.0680976,-1.0172487,10.015758
591,-3.3661032,-1.6881363,10.356136
592,-2.566003,-2.4930222,10.945369
593,-2.2522442,-3.2979078,11.088939
594,-2.3383858,-4.8119664,10.4566345
595,-2.7146573,-5.916254,7.1270223
596,-2.1972094,-5.9904313,6.515955
597,-2.0006988,-6.5437717,8.338987
598,-2.3961127,-7.95464,6.1639113
599,-3.3373895,-9.490233,2.3503501
600,-4.453641,-12.065509,-1.5687944
601,-5.8190455,-15.783358,-1.3411771
602,-6.966703,-20.674885,-2.306681
603,-6.3388863,-21.755245,-4.936692
604,-3.9840498,-23.688347,-4.026522
605,-2.2546372,-27.99782,0.54646087
606,-4.755436,-34.76532,-0.7710871
607,-7.1007013,-37.091145,-4.1437707
608,-6.724729,-33.31108,-5.4278193
609,-4.1685963,-26.06711,-4.45065
610,-1.7994026,-19.582561,-0.37088752
611,-0.0317049,-13.220046,7.112665
612,-0.6017949,-8.692527,10.904691
613,-1.2580265,-5.6814585,13.707285
614,-1.7922242,-0.57188463,25.29692
615,-0.90119684,-0.8066803,15.384354
616,-1.2987045,-2.129014,6.6502523
617,-2.0150557,-2.5695925,-0.2536392
618,-2.120639,-1.9229321,-1.8705891
619,-5.0718865,-2.1095722,5.160122
620,-6.355636,-3.3385859,7.474281
621,-3.246462,-2.8666015,0.39332023
622,-1.1192428,-2.7708886,-0.2656033
623,-0.6376872,-1.8245273,-0.9843474
624,0.36370903,-0.44715872,-2.8142586
625,0.6655038,0.23539393,-3.5210385
626,0.7372885,0.65952176,-3.3197422
627,0.6559325,1.5194423,-2.606083
628,0.2844468,1.7518452,-1.5544374
629,0.29671,1.538585,-1.0657034
630,-0.15373886,1.2631112,-1.2263216
631,-0.046061836,1.4596218,-1.2837493
632,-0.2015953,1.4285151,-1.0872388
633,-0.19202402,1.3878372,-1.6932211
634,-0.23748764,1.4691931,-2.5339992
635,-0.29282168,1.6968104,-3.5473595
636,-0.4244269,1.8834505,-5.973981
637,-0.56829536,1.0091729,-7.737192
638,-0.7405786,0.14446667,-7.725228
639,-0.831805,-0.16450655,-7.085447
640,-1.1647065,-0.22432712,-4.5559344
641,-1.4904294,-0.22432712,-2.428715
642,-1.4976078,-0.25573292,-1.5089738
643,-1.6941184,-0.32512477,-1.314856
644,-1.864308,-0.5599205,-1.3722838
645,-1.9528424,-0.7465607,-1.2909278
646,-1.971985,-0.78035927,-1.0226326
647,-1.91695,-0.83778703,-0.54346985
648,-1.998306,-0.9765707,-0.32063824
649,-1.6510476,-0.8258229,0.117547415
650,-1.2412767,-0.6580262,0.6230312
651,-0.47946185,-0.57427746,2.8558338
652,10.692926,-2.9219356,48.918865
653,1.815255,-11.799606,34.423744
654,-9.539287,-15.062221,-6.4459653
655,-6.7127647,-15.804893,-8.129914
656,-5.0548377,-17.771494,-11.162817
657,2.5292134,-30.742985,8.386844
658,6.3834524,-55.639706,24.008087
659,17.92254,-65.37969,44.060837
660,1.8367904,-59.71199,0.6469594
661,-8.35125,-35.986855,2.5803602
662,-10.578968,-19.48655,3.4211383
663,-9.829117,-10.920244,-3.5760734
664,-9.913165,-3.7818563,-5.00399
665,-6.9209404,-0.028115666,-1.0393823
666,-4.781757,2.0703897,0.5943173
667,-1.5071791,5.704489,5.936294
668,-0.65922266,6.612266,10.8015
669,-2.8079774,5.5797634,11.95873
670,-2.6401806,3.8168511,8.470891
671,-2.7816563,-1.1587243,5.457131
672,-1.6199409,-8.62792,10.059127
673,-0.64247286,-12.563814,12.224631
674,-0.19441684,-12.975679,10.562219
675,-1.2819548,-9.911968,9.084052
676,-3.9601214,-6.706783,7.8550386
677,-3.3900316,-3.0080771,6.2958155
678,-0.38614175,-0.54317075,4.8391848
679,0.6942177,-1.2161521,5.454738
680,-1.0280164,-3.6236308,7.0597243
681,-2.879762,-5.0009995,9.467203
682,-4.322036,-5.171189,10.284053
683,-4.8705907,-4.174578,10.039985
684,-4.5352964,-3.9828532,9.58475
685,-4.334,-4.323232,9.043374
686,-2.9805596,-4.395017,8.863613
687,-2.0150557,-4.1339,9.19173
688,-1.5864414,-4.014259,9.771689
689,-2.2713869,-3.5877385,8.9521475
690,-2.6859434,-3.1085758,8.669496
691,-3.3637104,-2.6775684,8.509176
692,-4.0154557,-2.7397819,8.269595
693,-3.979264,-3.2237303,8.897113
694,-3.7471602,-3.9302113,10.135697
695,-3.330211,-4.4548373,9.675677
696,-3.5841491,-4.4189453,9.541679
697,-3.7567315,-3.8177485,9.050552
698,-3.804588,-3.3026934,8.396415
699,-3.9987056,-2.5097718,8.240881
700,-3.4669008,-2.5121646,8.250452
701,-3.1624143,-2.6174488,8.463713
702,-3.7037904,-2.629413,8.374879
703,-3.1552358,-2.548057,7.9534435
704,-3.8644085,-2.2821546,8.190632
705,-4.67408,-2.3084757,8.482856
706,-4.9663033,-2.4523442,8.923434
707,-5.5316076,-2.804388,9.4890375
708,-5.407181,-2.8833513,9.805189
709,-5.5651073,-2.6823542,10.240982
710,-5.8839507,-2.4212375,10.605289
711,-5.749654,-2.140978,10.200304
712,-5.622834,-1.8942182,9.455238
713,-4.820341,-1.6881363,9.136694
714,-4.369892,-1.7766708,9.084052
715,-3.7758741,-2.047359,9.045767
716,-3.9553359,-2.2582264,9.335598
717,-4.7865424,-2.3973093,9.932009
718,-5.3904314,-2.4595225,10.432707
719,-5.5890355,-2.387738,10.430314
720,-5.692226,-2.196013,10.209875
721,-5.5890355,-2.1481566,10.190733
722,-5.2537413,-2.0401804,10.358529
723,-4.820341,-2.1047866,10.17159
724,-4.7434716,-2.3060827,10.382458
725,-4.892126,-2.1649063,10.090234
726,-4.935197,-2.1385853,9.788439
727,-5.064708,-2.0521445,10.075877
728,-4.999803,-2.179263,10.219446
729,-4.863412,-2.1505494,10.157233
730,-4.851448,-2.0808585,10.30828
731,-4.928018,-2.2869403,10.4351
732,-5.107779,-2.4212375,10.567004
733,-5.246563,-2.545664,11.009975
734,-5.328218,-2.4451656,10.808679
735,-5.328218,-2.4595225,10.720144
736,-5.433502,-2.2582264,10.229017
737,-5.404788,-1.82692,9.395418
738,-5.36411,-1.4844474,9.000303
739,-5.3760743,-1.4557334,9.268599
740,-5.215456,-1.5131612,9.563215
741,-4.9232326,-1.7766708,9.48156
742,-4.5206404,-1.7527425,8.964411
743,-4.4392843,-1.7312071,9.395418
744,-4.788935,-2.0138593,9.912866
745,-5.0452666,-2.2223341,9.546465
746,-4.999803,-2.4690938,9.143872
747,-4.894519,-2.5169504,9.416953
748,-4.2260237,-2.5552354,8.842078
749,-3.7615173,-2.586342,9.409775
750,-3.2488549,-2.5648067,8.4349985
751,-2.5109682,-2.5313072,9.433703
752,-2.8103702,-2.5169504,9.42174
753,-3.1815567,-2.370689,9.627821
754,-3.7447674,-2.0401804,10.090234
755,-3.778267,-1.8822541,9.452846
756,-3.3637104,-2.0162523,9.043374
757,-2.9733813,-2.44038,8.513962
758,-2.4391835,-3.2644083,8.008478
759,-2.0054846,-3.9086757,7.699505
760,-1.3731811,-4.49073,7.332805
761,-0.97776717,-4.684848,7.2825556
762,-1.1264212,-4.668098,7.845467
763,-1.4593227,-4.7709894,8.866006
764,-1.5984055,-5.3653064,10.8352995
765,-2.4320052,-6.4241304,11.759826
766,-2.9805596,-7.01097,10.071092
767,-3.5697923,-7.9283185,6.259624
768,-3.641577,-8.613564,6.4034925
769,-4.3986063,-9.765707,4.1590247
770,-4.889733,-9.823135,2.6377878
771,-4.415356,-9.2075815,-0.47168517
772,-5.4023952,-15.440585,-3.9738803
773,-5.519644,-18.42294,-7.550253
774,-6.8874407,-27.449265,-5.633901
775,-7.3666034,-39.63292,-5.4589257
776,-7.498508,-41.877388,-4.4410787
777,-5.608477,-34.777283,-4.738088
778,-4.686044,-28.496124,-5.1403813
779,-2.1996021,-21.242582,-3.406183
780,-1.250848,-16.710278,-2.0383859
781,-1.1407782,-14.058432,-1.3124632
782,-0.4435695,-9.530911,1.9094725
783,0.7516454,-0.6987042,25.07409
784,0.18634106,1.5026926,29.122446
785,0.4977071,-0.701097,17.69582
786,-0.5132605,-2.9937203,7.6683984
787,-1.3444673,-3.065505,7.428817
788,-4.0513477,-3.336193,8.063513
789,-7.9462647,-4.5819564,5.7206407
790,-8.2914295,-4.8263235,3.670291
791,-6.326922,-3.7507496,-0.84047896
792,-2.0581267,-2.8235307,-3.1259236
793,-0.78634137,-1.8029919,-3.1402807
794,0.37806597,-0.6197411,-2.1005993
795,1.2116655,-0.20997019,-1.6645073
796,0.84047896,0.00059820566,-1.762912
797,0.51206404,0.53240305,-2.9222345
798,0.37567315,1.0737791,-4.5822554
799,0.60807604,1.5002998,-4.505685
800,0.7325028,1.7662022,-3.1426735
801,1.4177474,1.6728821,-2.3569303
802,0.3182454,2.137389,-1.5520446
803,0.25094727,1.675275,-1.6621144
804,-0.31435707,1.157827,-3.0586255
805,-1.0546366,1.049851,-5.794519
806,-1.9767706,0.61884373,-8.618649
807,-1.7228323,-0.66759753,-7.943274
808,-1.7419748,-0.959821,-5.8304114
809,-1.6749759,-0.8856435,-4.7141595
810,-1.34686,-0.3801597,-3.8204405
811,-1.5502499,-0.21954148,-2.7616165
812,-1.7611175,-0.39930227,-2.1125634
813,-1.8834505,-0.66041905,-1.5616158
814,-2.1852453,-0.9526425,-1.4946169
815,-2.3216362,-1.2137593,-1.3866407
816,-2.2019951,-1.2735798,-1.3363914
817,-1.495215,-0.84735835,-1.0058829
818,-0.79112697,-0.48305106,-0.6511469
819,-0.46271208,-0.32033914,-0.27038896
820,-0.36221352,-0.31076783,0.56560344
821,-0.573081,-0.72502524,1.5071791
822,-2.812763,-11.914462,45.061935
823,-10.174282,-14.03211,-8.058129
824,-4.930411,-12.005389,-15.750156
825,-3.4331024,-11.962318,-11.129317
826,-1.4808581,-23.78406,10.787144
827,5.9356956,-57.40501,40.60889
828,5.712864,-77.65906,28.878078
829,0.5407779,-69.9766,-2.6084757
830,-7.615756,-36.147476,2.4364917
831,-7.5583286,-16.844574,-5.1140604
832,-6.8706913,-8.179864,-8.221141
833,-5.7281184,-2.1720848,-2.5028925
834,-4.7195435,1.1243275,4.7434716
835,-2.4631119,2.8920252,9.009874
836,-1.2675978,3.4716866,8.727222
837,-2.4367907,4.418048,6.355636
838,-2.9036903,4.2239304,7.3232336
839,-0.4866403,4.8732824,8.176275
840,-1.1407782,-0.08793623,7.1677003
841,1.0486546,-6.666105,9.146265
842,2.455036,-12.388839,11.601601
843,0.55752766,-12.822538,10.372886
844,-2.5444677,-10.77189,8.851649
845,-3.1432717,-6.6394844,8.085049
846,-0.42203408,-3.8823547,5.7616177
847,1.2906287,-1.2879368,5.1553364
848,0.51445687,-1.3193426,6.413064
849,-1.7682959,-3.7073796,7.9247293
850,-4.424927,-5.6671014,9.395418
851,-5.6276197,-5.769993,9.249456
852,-5.392824,-4.41416,8.252846
853,-5.328218,-2.5815566,8.0970125
854,-4.267001,-1.7048861,7.3689966
855,-2.4702902,-2.047359,7.04776
856,-0.19202402,-2.332404,8.331808
857,1.3746766,-2.536093,8.962018
858,1.2116655,-3.1348968,9.148658
859,-0.9945169,-2.9578278,8.693723
860,-2.949453,-3.063112,9.052945
861,-4.1374893,-2.6054847,9.167801
862,-4.235595,-2.5983062,8.52114
863,-4.5687957,-2.2989044,7.605886
864,-4.1590247,-2.1337996,7.646863
865,-4.0585265,-2.4308088,8.868399
866,-3.382853,-3.0176485,8.530712
867,-3.4692938,-3.3385859,9.266206
868,-4.322036,-3.460919,9.426525
869,-4.9232326,-3.2333016,10.042377
870,-5.0766726,-3.362514,10.181161
871,-4.834698,-3.4390843,8.772686
872,-4.928018,-3.5159538,9.424132
873,-4.820341,-3.8057845,9.958329
874,-4.8323054,-3.6188452,9.589536
875,-4.41057,-3.4103706,9.565608
876,-4.5687957,-3.1926236,9.515358
877,-4.4321055,-2.8953154,9.186943
878,-4.362714,-2.9506495,9.5919285
879,-4.276572,-2.955435,9.71157
880,-4.42732,-3.1061828,9.984651
881,-4.491926,-3.1755748,10.152448
882,-4.322036,-3.1229327,10.15484
883,-4.417749,-2.885744,10.164412
884,-3.938586,-2.8474588,10.039985
885,-4.182953,-2.804388,10.454242
886,-4.3244286,-2.725425,10.701002
887,-4.4775696,-2.6102705,10.272088
888,-4.4608197,-2.5815566,10.549955
889,-4.391428,-2.7278178,10.480563
890,-4.58076,-2.8689942,10.473385
891,-4.9495535,-3.075076,10.240982
892,-5.11735,-3.2715867,10.315458
893,-5.1460643,-3.293122,10.420743
894,-5.1341,-3.24048,10.396814
895,-4.985446,-3.2380872,10.279267
896,-4.971089,-3.0942187,9.879367
897,-5.1149573,-2.8953154,9.536894
898,-5.0958147,-3.0343983,9.692428
899,-5.181957,-3.2380872,9.757333
900,-5.4670014,-3.3026934,9.850653
901,-5.601299,-3.3242288,9.951151
902,-5.4239306,-3.3864422,9.891331
903,-5.3039904,-3.3003006,9.850653
904,-5.1675997,-3.2285159,9.64457
905,-4.8490553,-3.1540394,9.41456
906,-4.796413,-3.269194,9.646963
907,-4.796413,-3.362514,9.786046
908,-4.7602215,-3.5207393,9.862617
909,-4.861019,-3.568596,9.795618
910,-4.944768,-3.609274,9.582357
911,-4.7745786,-3.4680972,9.122337
912,-4.540082,-3.132504,8.667103
913,-4.1422753,-2.778067,8.444571
914,-3.8141594,-2.507379,8.374879
915,-3.370889,-2.3084757,8.439785
916,-3.1169505,-2.3829522,7.7569327
917,-2.7672994,-2.574378,8.485249
918,-2.784049,-2.7948167,8.5474615
919,-2.9374888,-2.9048867,8.576176
920,-2.9374888,-2.8474588,8.384451
921,-2.9805596,-2.6246274,9.366704
922,-3.004488,-2.3949163,8.535498
923,-3.0140593,-2.315654,9.37149
924,-2.9183464,-2.2151556,8.770293
925,-2.7433712,-2.2342982,8.772686
926,-2.5803602,-2.3539393,8.897113
927,-2.297708,-2.536093,8.866006
928,-2.0629122,-2.7900312,8.957232
929,-1.8810577,-3.1683962,9.44806
930,-1.5984055,-3.6954155,9.955936
931,-1.428216,-4.421338,10.4159565
932,-1.1503495,-4.9986067,10.837692
933,-0.73340017,-6.230013,8.858828
934,-2.2618155,-7.0540414,7.577172
935,-4.4225345,-8.096115,3.4450665
936,-5.0886364,-9.526126,3.0762727
937,-4.813163,-11.571989,5.308776
938,-5.79751,-11.583954,4.3480577
939,-7.713862,-16.164116,0.14177474
940,-6.209674,-20.078474,-3.5306098
941,-6.4325056,-23.92075,-6.7669024
942,-5.7137613,-31.354052,-3.7223346
943,-6.638288,-38.519062,-2.1795623
944,-5.8624153,-38.142788,-3.6888351
945,-4.451248,-31.02833,-3.0299118
946,-3.6176488,-25.439592,-2.2995026
947,-2.02702,-19.319052,-0.13848461
948,-1.509572,-15.098113,2.8917263
949,-1.3058829,-11.811571,4.101298
950,-0.5347959,-8.096115,5.4332027
951,0.2868396,-4.9363933,8.904291
952,1.7338991,0.7073782,20.155941
953,1.599602,-0.9287143,12.91197
954,0.6750751,-3.4800615,6.6358953
955,-0.13459627,-4.5412784,4.429713
956,-2.3790638,-4.258626,7.699505
957,-4.6908298,-4.708776,10.075877
958,-5.7352967,-4.299304,4.8990054
959,-5.1293144,-4.0788655,-2.4885356
960,-3.9625144,-3.9828532,-5.5046883
961,-2.2019951,-3.075076,-5.8854465
962,-0.41964126,-0.9741779,-4.9079785
963,0.35413775,0.3912265,-3.3221352
964,0.37806597,1.4620147,-2.4095724
965,0.2844468,2.079961,-1.6190436
966,-0.089132644,2.3195424,-1.5257236
967,-0.9490533,2.6021945,-2.1269202
968,-2.1131616,2.1421745,-2.4143581
969,-1.7252251,1.6319051,-2.210669
970,-2.137389,1.591227,-2.7711878
971,-1.7587247,1.7135601,-3.894917
972,-1.8161523,2.0703897,-4.536792
973,-1.198206,2.3817558,-4.45065
974,-0.5491528,2.4801607,-4.7955155
975,-0.46031925,2.4466612,-4.793123
976,-1.5454643,1.7542381,-2.6395824
977,-1.5646069,0.68345,-0.7304091
978,-1.334896,0.31944183,-0.77826554
979,-1.0929217,0.014955142,-0.49800622
980,-1.0522437,-0.13339986,-0.40438703
981,-1.1120644,-0.2868396,-0.4621139
982,-1.0375878,-0.32273194,-0.5315057
983,-1.0280164,-0.4639085,-0.5769694
984,-1.1718849,-0.49980083,-0.8452646
985,-1.442573,-0.65084773,-0.92662054
986,-1.5888343,-0.6843473,-0.8787641
987,-1.5984055,-0.57906306,-0.49322057
988,-1.3707882,-0.40887356,0.005084748
989,-1.5478572,-0.63888365,0.5057829
990,-14.102698,-6.105287,44.24748
991,-8.286644,-5.851349,-2.4143581
992,1.4656038,-4.49073,-18.097815
993,0.8138588,-5.089833,-14.49243
994,3.9568315,-5.238188,-5.0303116
995,-3.6918263,-19.855642,19.329521
996,1.7841483,-77.65906,78.143906
997,-36.70201,-77.65906,-10.254741
998,-14.634503,-70.45098,-24.841087
999,0.68464637,-25.575983,-31.016665
1000,3.1567314,-9.3104725,-21.458534
1001,1.2810575,-2.64377,-8.472686
1002,-1.4114662,1.3133606,5.7783675
1003,-1.4401802,5.450551,15.0272255
1004,-0.40289152,5.812166,15.48246
1005,0.81625164,3.6466618,10.022936
1006,0.4833502,3.1579278,6.113662
1007,-0.18245272,2.8130622,9.563215
1008,-0.69272214,3.1483564,7.6420774
1009,-6.8802624,-3.431906,3.3756745
1010,0.21026929,-10.149158,7.2490563
1011,5.135596,-13.81885,10.169197
1012,4.2275195,-14.556737,10.698609
1013,1.5972091,-12.460624,11.316556
1014,-2.8103702,-8.759525,10.245768
1015,-3.842873,-5.178367,6.573682
1016,-2.5372894,-2.1433709,5.4260244
1017,-1.2173486,0.2330011,6.0394845
1018,-2.2809582,0.46779683,6.3939214
1019,-2.566003,-1.2783655,8.377272
1020,-2.7361927,-4.0405803,9.122337
1021,-3.6080775,-5.573482,9.55125
1022,-4.1015973,-5.195117,9.594321
1023,-4.21406,-4.2511487,8.779864
1024,-3.8500516,-1.2257234,8.082656
1025,-3.2656047,0.48933223,7.687541
1026,-2.39372,-0.45912284,7.8263245
1027,-1.6534405,-1.9683957,8.46132
1028,-1.4808581,-3.01047,8.454142
1029,-1.8305093,-3.4585261,7.9941216
1030,-3.3852458,-3.501597,8.338987
1031,-4.772186,-3.118147,8.616854
1032,-5.0766726,-3.0008986,8.643174
1033,-4.8394837,-2.3973093,8.113763
1034,-4.7578287,-1.7144574,8.0013
1035,-4.0609193,-1.3217354,8.013264
1036,-3.8691943,-1.7312071,8.11137
1037,-4.1207395,-1.951646,8.545069
1038,-4.3387856,-1.977967,8.372486
1039,-4.58076,-2.2510478,8.552247
1040,-4.4057846,-2.2007985,8.667103
1041,-4.1925244,-2.129014,8.509176
1042,-3.9050865,-2.3539393,8.95484
1043,-4.5352964,-2.4571297,9.160623
1044,-4.540082,-2.224727,8.940184
1045,-4.482355,-1.8053846,8.69133
1046,-4.456034,-1.8340986,8.832506
1047,-4.8155556,-1.6570296,9.069695
1048,-4.6429734,-1.585245,8.887542
1049,-4.5281177,-1.8559331,9.127123
1050,-4.491926,-1.8317057,8.628818
1051,-4.5544386,-1.625923,8.6599245
1052,-4.6118665,-1.5900307,8.86122
1053,-4.441677,-1.5370895,8.962018
1054,-4.456034,-1.4413766,9.862617
1055,-4.7267222,-1.6091732,9.838689
1056,-4.731508,-1.6331015,9.991829
1057,-4.573581,-1.6522441,10.243375
1058,-4.9519463,-1.6761723,10.245768
1059,-5.1125646,-1.7718852,10.612468
1060,-5.5722857,-1.585245,10.617253
1061,-5.625227,-1.3648062,10.219446
1062,-5.3330035,-1.2472588,10.116555
1063,-5.2896338,-1.2783655,10.4351
1064,-5.308776,-1.3887345,10.602897
1065,-5.6204414,-1.4940187,10.763215
1066,-5.759225,-1.50359,10.643574
1067,-6.0251274,-1.7216359,10.916656
1068,-6.1737814,-1.9947168,10.976476
1069,-6.2862444,-1.9707886,11.072188
1070,-5.910272,-1.9564316,11.105988
1071,-5.787939,-1.9013968,11.194522
1072,-5.5965133,-1.625923,10.82812
1073,-5.4789658,-1.6570296,10.808679
1074,-5.174778,-1.8942182,10.535598
1075,-5.0141597,-2.018645,10.260124
1076,-4.9663033,-2.2271197,10.490134
1077,-5.124529,-2.3419752,10.447063
1078,-5.2082777,-2.3108685,10.2673025
1079,-5.258527,-2.207977,10.26491
1080,-5.3425746,-1.9899311,10.020543
1081,-5.2776694,-1.7862421,9.582357
1082,-5.5651073,-1.585245,9.436096
1083,-5.6850476,-1.5777674,10.030414
1084,-4.765007,-1.4509479,9.017053
1085,-4.403392,-1.2520444,9.029017
1086,-4.5206404,-1.2927225,10.145268
1087,-3.940979,-1.625923,9.201301
1088,-3.641577,-1.6378871,9.560822
1089,-3.8524444,-1.774278,9.656535
1090,-4.228417,-2.129014,9.117552
1091,-4.130311,-2.1768703,9.115159
1092,-4.154239,-2.3276181,9.419347
1093,-4.441677,-2.4332016,9.570394
1094,-4.4464626,-2.4451656,9.369097
1095,-3.9194436,-2.4451656,9.642178
1096,-3.5650067,-2.3778675,9.701999
1097,-3.5075788,-1.9827527,9.326026
1098,-3.1600213,-1.4724833,10.564611
1099,-3.382853,-1.3193426,10.919048
1100,-3.560221,-1.5203397,10.583754
1101,-3.521936,-2.0784655,9.912866
1102,-3.263212,-2.6006992,10.04477
1103,-3.1337004,-3.1013973,10.612468
1104,-2.7146573,-3.7531424,10.636395
1105,-2.3599212,-4.70399,10.272088
1106,-2.6018956,-5.695815,8.95484
1107,-2.245066,-6.1100726,8.166703
1108,-2.611467,-7.152147,7.0863442
1109,-2.951846,-9.042177,7.5843506
1110,-3.723232,-10.613664,5.648856
1111,-4.247559,-11.193325,3.1265218
1112,-3.4043884,-12.029616,-1.5281163
1113,-2.6186452,-14.166408,-4.6205406
1114,-3.8907297,-16.394125,-7.411469
1115,-4.194917,-22.239193,-8.963513
1116,-4.2020955,-30.922747,-5.391927
1117,-6.013163,-38.28666,-4.3929234
1118,-5.110172,-35.891144,-2.768795
1119,-3.9601214,-29.935707,-1.9734805
1120,-3.7830527,-23.094328,-2.5411777
1121,-2.268994,-17.141582,-1.5687944
1122,-1.1862419,-12.539587,1.998306
1123,1.3674982,-6.117251,15.475282
1124,1.570888,-1.1874382,28.408487
1125,0.72293156,-3.3026934,13.817654
1126,-1.0232308,-5.858527,1.0016954
1127,-2.2785654,-6.0430737,-2.3234308
1128,-1.8595223,-5.1616178,-2.0670996
1129,-4.305286,-4.3878384,5.4957156
1130,-11.75534,-4.203292,13.321741
1131,-15.983158,-4.119543,9.167801
1132,-11.134701,-3.67388,4.2332025
1133,-4.3387856,-1.556232,-3.4085758
1134,-1.7395821,-0.34426737,-2.8022945
1135,-0.7692925,0.2545365,-2.2322044
1136,-0.6089734,0.99720883,-2.498107
1137,-0.7286145,1.4045869,-3.5306098
1138,-0.73579293,1.8020946,-4.1632123
1139,-0.1274178,2.0823538,-3.5449667
1140,0.08823533,2.039283,-1.9591235
1141,0.016151553,2.0081763,-1.4440684
1142,0.4761717,2.0632114,-1.5927225
1143,0.6583253,1.6031911,-1.911267
1144,1.4799608,1.919642,-3.377469
1145,2.3829522,2.43709,-6.369395
1146,2.6273193,2.4418755,-6.340681
1147,1.9806589,1.2607185,-4.5248275
1148,0.61046886,1.0307083,-3.6601214
1149,-0.024526432,0.7408777,-3.528217
1150,0.78753775,0.2545365,-2.754438
1151,1.0007981,0.14925231,-2.388037
1152,0.74446696,-0.09750752,-1.8466609
1153,0.46899325,-0.2868396,-1.3722838
1154,0.15044872,-0.44715872,-1.1159526
1155,-0.1896312,-0.42083767,-0.9484551
1156,-0.33589247,-0.41365921,-0.92183495
1157,-0.40528435,-0.45194438,-0.82612205
1158,-0.4746762,-0.41605204,-0.54346985
1159,-0.4004987,-0.25094727,-0.24646074
1160,-0.21595225,-0.18843478,0.21834506
1161,-0.41485563,-0.4112664,0.45792642
1162,-21.996021,-11.562418,73.156364
1163,-10.641181,-9.38495,-13.783257
1164,1.0055838,-9.820743,-12.305389
1165,1.0725827,-11.239088,-4.80748
1166,-3.670291,-23.391336,1.6746768
1167,1.8391833,-54.046684,37.12584
1168,-12.217453,-77.49844,48.719963
1169,-12.327823,-76.41569,0.8913264
1170,-4.880162,-31.08815,-15.115162
1171,-4.928018,-12.693027,-17.19931
1172,-3.246462,-4.100401,-9.238987
1173,-4.2068815,-1.2257234,-4.1751766
1174,-3.897908,0.7791629,0.23030917
1175,-4.0034914,2.6165516,5.2202415
1176,-2.8199415,3.8431723,9.186943
1177,-1.9002002,4.363013,10.693824
1178,-1.9193429,4.746164,7.4862447
1179,-0.87248296,4.9474597,6.1495543
1180,0.811466,4.226323,5.541179
1181,2.030908,-2.804388,8.157132
1182,2.6536403,-8.848359,9.256635
1183,2.6775684,-14.578272,10.64836
1184,0.3397808,-14.415261,11.930016
1185,-1.9624137,-12.348162,11.357234
1186,-2.2235305,-8.706883,8.5067835
1187,-0.3574279,-4.9722853,5.4789658
1188,0.7372885,-1.4796617,4.494319
1189,0.042771704,1.3157533,5.002196
1190,-1.713261,2.0033908,6.216553
1191,-2.9949167,0.8344969,7.7736826
1192,-4.2164526,-2.885744,9.318848
1193,-4.6381874,-4.84068,9.1821575
1194,-4.5999026,-6.0358953,9.381062
1195,-4.604688,-6.469594,9.395418
1196,-4.8993044,-6.4528446,8.710473
1197,-4.8011985,-5.250152,8.511569
1198,-4.2909293,-3.2333016,8.106584
1199,-2.6449664,-2.6270201,8.671888
1200,-1.986342,-3.3529427,8.940184
1201,-2.1996021,-3.5973098,9.361918
1202,-2.9374888,-3.4752758,9.254242
1203,-3.2033913,-3.1133614,9.2590275
1204,-3.8333018,-2.9793632,9.445667
1205,-3.9026937,-2.586342,9.337991
1206,-3.6607196,-2.2701905,9.105587
1207,-3.9696927,-1.814956,9.069695
1208,-3.7878382,-1.3959129,9.225528
1209,-4.144668,-1.5729818,9.891331
1210,-3.8165522,-2.0425732,9.817153
1211,-4.0034914,-2.5576284,9.5919285
1212,-4.228417,-2.7349963,9.793225
1213,-4.712365,-2.5767708,10.178768
1214,-4.9232326,-2.1433709,10.092627
1215,-4.8586264,-1.7359928,9.613464
1216,-4.8993044,-1.5370895,9.469596
1217,-4.712365,-1.4868401,9.206086
1218,-4.369892,-1.3983058,9.153444
1219,-4.115954,-1.7216359,9.096016
1220,-4.1662035,-1.87029,9.49143
1221,-4.4751763,-2.0282164,9.589536
1222,-4.875376,-1.9995024,9.740284
1223,-5.067101,-1.9037895,9.94158
1224,-4.9639106,-1.7431713,9.922438
1225,-4.619045,-1.625923,9.991829
1226,-4.4392843,-1.4461622,9.807582
1227,-4.417749,-1.448555,9.896116
1228,-4.537689,-1.7048861,9.898509
1229,-4.619045,-2.0353947,10.2673025
1230,-4.781757,-2.0377877,10.293923
1231,-4.772186,-1.96361,10.190733
1232,-4.698008,-2.1744776,10.399207
1233,-4.834698,-2.4212375,10.540383
1234,-4.944768,-2.5791638,10.497313
1235,-5.107779,-2.6632116,10.142876
1236,-5.4813585,-2.6536403,10.317851
1237,-5.675476,-2.821138,10.521241
1238,-5.864808,-2.7565317,10.097412
1239,-5.8190455,-2.7110682,9.869795
1240,-5.742475,-2.7397819,9.869795
1241,-5.61087,-2.7278178,9.627821
1242,-5.4502516,-2.6919255,9.548858
1243,-5.2274203,-2.6632116,9.38824
1244,-4.861019,-2.5049863,9.174979
1245,-4.6286163,-2.318047,9.098409
1246,-4.508676,-2.2151556,9.119945
1247,-4.3148575,-2.2534406,9.029017
1248,-4.2598224,-2.2438695,9.155837
1249,-4.048955,-2.2223341,9.1821575
1250,-3.6583266,-2.1577277,9.026625
1251,-3.3589249,-2.184049,9.005089
1252,-3.3326037,-2.1601207,9.208479
1253,-3.275176,-2.0665014,9.462418
1254,-3.2991042,-2.179263,9.471989
1255,-2.676372,-2.2582264,9.251849
1256,-2.7984061,-2.495415,9.426525
1257,-2.7625136,-2.8187451,8.937791
1258,-2.8295128,-2.9458637,9.043374
1259,-2.9829526,-2.7206392,9.565608
1260,-2.9566314,-2.5504498,9.098409
1261,-2.8606195,-2.3204398,9.019445
1262,-2.6018956,-2.2007985,9.15823
1263,-2.4008985,-2.3539393,9.179765
1264,-2.1948166,-2.8426733,9.165408
1265,-2.0748763,-3.4486556,9.359526
1266,-2.024627,-4.0357943,9.534501
1267,-1.9217356,-4.5170507,9.685248
1268,-1.8329022,-5.0802617,9.867402
1269,-1.8858434,-5.35095,10.068699
1270,-1.5669997,-6.131907,9.036196
1271,-1.7922242,-6.6370916,7.0669026
1272,-2.3790638,-8.017152,5.684748
1273,-4.0202413,-9.502198,5.5340004
1274,-4.820341,-9.267402,3.5407794
1275,-5.8046885,-10.577771,2.484348
1276,-6.0418773,-11.890533,-0.45732823
1277,-6.9882383,-13.47877,-2.4215364
1278,-8.69133,-17.400307,-3.8515472
1279,-8.959625,-26.285156,-4.5726843
1280,-10.8018,-36.760635,-4.249354
1281,-9.838689,-42.96971,-3.923631
1282,-7.031309,-38.418262,-3.2623146
1283,-4.2427735,-29.8376,-2.079064
1284,-2.2929223,-23.348267,1.1596217
1285,-1.6103697,-17.730816,6.480063
1286,-1.2005987,-12.103794,7.5580297
1287,-1.0809577,-7.7943206,7.1102724
1288,0.023330022,-3.7073796,10.245768
1289,1.410569,-0.60059845,12.926327
1290,1.7650058,-0.28205398,10.183554
1291,1.7650058,-0.28205398,10.183554
1292,0.36610186,-2.6679974,3.2174492
1293,-0.30239296,-0.9023932,10.18834
1294,-4.467998,-1.1443675,15.582958
1295,-3.2033913,-1.5900307,7.49103
1296,-1.943271,-1.570589,-2.536392
1297,-1.9049859,-1.8798612,-4.888836
1298,-0.73818576,-1.0076774,-5.425426
1299,-0.96819586,-0.55034924,-5.0422754
1300,-1.6103697,-0.22671995,-3.0442686
1301,-0.9634102,0.42951167,-1.6118652
1302,0.31106696,1.1051849,-1.3459628
1303,0.48095736,1.4069797,-1.8658035
1304,0.34456646,1.6393826,-2.2441685
1305,0.1576272,1.837987,-2.2633111
1306,-0.14177474,1.9124635,-1.7099708
1307,-0.12502499,1.8308084,-1.7653049
1308,0.11216356,2.1855445,-1.7051853
1309,0.44745782,2.379363,-1.9280169
1310,0.61764735,2.094318,-2.4023938
1311,0.7109674,1.8738792,-4.3666024
1312,0.36370903,0.92542416,-6.134599
1313,0.48095736,0.10139586,-6.4124656
1314,0.12412767,-0.47826543,-4.69741
1315,-0.28803602,-0.7728817,-2.8719854
1316,-0.4124628,-0.66759753,-1.5424733
1317,-0.50817573,-0.6125626,-0.7423732
1318,-0.9083753,-0.8066803,-0.5027919
1319,-1.4736797,-1.1371889,-0.6008976
1320,-1.8233309,-1.2687942,-0.5697909
1321,-1.9935204,-1.3791631,-0.5027919
1322,-1.9935204,-1.2472588,-0.14596218
1323,-1.7946169,-0.9813564,0.5392824
1324,-1.4856437,-0.8593224,1.1859428
1325,-0.5419743,-6.0622163,50.082973
1326,-8.212168,-6.0358953,1.5143577
1327,-6.899405,-4.0716867,-13.627723
1328,-1.9743778,-5.0344987,-9.876375
1329,-1.7730815,-6.160621,-7.124031
1330,-3.152843,-14.468203,-4.8673005
1331,-12.100205,-58.86643,11.033903
1332,5.0826545,-77.388374,78.709206
1333,5.193023,-76.70074,10.547563
1334,0.7372885,-35.73531,-13.680366
1335,0.09302098,-16.003496,-25.327429
1336,-3.5099716,-3.3266218,-11.541182
1337,-5.823831,1.6393826,-3.9140596
1338,-8.020741,3.2826536,2.44367
1339,-7.5104723,3.2802608,2.9156544
1340,-5.658726,4.281358,3.5216367
1341,-5.0599227,4.3582273,6.901798
1342,-3.437888,4.0995035,13.716856
1343,-3.1624143,3.522235,16.850258
1344,-3.7133617,2.096711,10.166804
1345,-8.463713,-3.513561,0.5775676
1346,-3.845266,-10.795817,5.042874
1347,1.1829517,-14.530416,5.8022957
1348,6.5081787,-16.305592,10.022936
1349,4.3187456,-15.519848,11.302198
1350,1.5876378,-12.412767,11.759826
1351,-0.26171497,-9.437592,8.624032
1352,-0.35264224,-6.6708903,6.168697
1353,0.2653042,-3.7220356,4.3552365
1354,-0.33589247,-1.6163517,4.6259246
1355,-1.8738792,-0.23389842,4.8439703
1356,-3.0499516,-0.011365907,6.302994
1357,-3.222534,-0.5312066,7.7162547
1358,-2.4439692,-1.9707886,8.760722
1359,-2.3264217,-3.0008986,9.155837
1360,-3.7663028,-3.609274,8.959625
1361,-4.8825545,-3.6020954,8.370093
1362,-5.4382877,-3.1803603,8.087441
1363,-4.42732,-2.955435,7.9223366
1364,-2.906083,-2.5289145,7.8550386
1365,-1.820938,-2.6679974,8.132905
1366,-1.3253247,-2.9482565,8.650353
1367,-1.6749759,-3.3170505,9.198908
1368,-2.1924238,-3.0008986,8.590532
1369,-2.678765,-2.7565317,8.161918
1370,-3.7806597,-2.8426733,8.17149
1371,-4.1781673,-2.7397819,8.446963
1372,-4.1638107,-2.9530423,8.224132
1373,-4.039384,-2.9120653,8.561818
1374,-4.3148575,-2.9072795,9.03141
1375,-4.0944185,-2.6656044,9.431311
1376,-4.075276,-2.3347967,9.069695
1377,-3.7615173,-1.9707886,8.985947
1378,-3.7543387,-1.7766708,9.402596
1379,-3.8476589,-1.7718852,10.293923
1380,-3.519543,-2.2007985,10.015758
1381,-3.5243287,-2.3515465,9.817153
1382,-3.7447674,-2.2677977,9.512965
1383,-3.900301,-2.3060827,10.202697
1384,-4.295715,-2.2462623,10.98844
1385,-4.005884,-2.6198416,10.537991
1386,-4.556832,-2.6126633,10.317851
1387,-5.217849,-2.399702,10.380065
1388,-5.5340004,-2.3973093,10.463814
1389,-5.0476594,-2.4930222,9.903295
1390,-4.861019,-2.483451,9.939187
1391,-4.983053,-2.3901308,10.135697
1392,-5.1364927,-2.2151556,10.377672
1393,-5.2609196,-2.1649063,10.459028
1394,-5.5459647,-2.2342982,10.667502
1395,-5.692226,-2.3276181,11.026725
1396,-5.677869,-2.466701,11.009975
1397,-5.447859,-2.5983062,10.942976
1398,-5.395217,-2.6751757,10.919048
1399,-5.1867423,-2.7014968,11.069796
1400,-4.8394837,-2.7349963,10.602897
1401,-4.892126,-2.766103,11.017154
1402,-5.11735,-2.806781,10.931012
1403,-5.3736815,-2.9458637,11.151451
1404,-5.5220366,-3.1085758,11.247164
1405,-5.742475,-3.214159,10.957334
1406,-5.823831,-3.0320053,10.447063
1407,-5.272884,-3.0702906,10.0830555
1408,-4.9160542,-3.12054,9.754641
1409,-4.607081,-3.1636107,9.661321
1410,-4.3316073,-3.242873,9.71157
1411,-4.319643,-3.309872,9.81476
1412,-4.240381,-3.321836,9.725926
1413,-4.310072,-3.3768709,9.87458
1414,-4.1638107,-3.3840494,9.541679
1415,-4.211667,-3.4657044,9.433703
1416,-3.7998023,-3.2500513,8.870791
1417,-4.025027,-3.187838,8.969196
1418,-3.8548372,-3.1348968,8.559425
1419,-3.246462,-3.0702906,8.444571
1420,-3.1073792,-3.1013973,8.66471
1421,-2.8845477,-3.063112,8.350951
1422,-2.7912276,-3.1301112,9.115159
1423,-2.9781668,-3.0272198,8.794222
1424,-2.882155,-2.7206392,8.87797
1425,-2.9973094,-2.5049863,9.247063
1426,-2.9036903,-2.7326035,8.87797
1427,-2.8103702,-3.1564322,8.830113
1428,-2.4894328,-3.5111682,9.03141
1429,-2.1804597,-4.083651,9.254242
1430,-1.8257236,-4.8502517,9.017053
1431,-1.1623136,-5.2310095,8.338987
1432,-0.6329016,-5.401199,8.157132
1433,-0.50817573,-5.834599,8.348558
1434,-0.9179466,-6.6852474,8.068299
1435,-1.4234303,-7.7054873,7.385746
1436,-2.6668007,-9.145369,6.47767
1437,-3.3924243,-10.37169,6.801
1438,-3.940979,-11.516954,4.9495535
1439,-4.8418765,-11.562418,1.7347964
1440,-5.1149573,-12.458231,0.7046863
1441,-4.8729835,-13.361522,-1.3794622
1442,-4.1518464,-13.953147,-3.4325042
1443,-4.7099724,-14.437096,-3.746263
1444,-6.369993,-24.835705,-4.9103713
1445,-8.322536,-34.26223,-4.3905306
1446,-7.632506,-38.983566,-3.717549
1447,-4.623831,-31.136007,-3.336492
1448,-4.508676,-24.651457,-3.3460634
1449,-3.3900316,-17.8361,-1.2140584
1450,-2.1804597,-12.702599,3.696612
1451,-1.5574285,-8.067402,12.032907
1452,-1.3082758,-3.8871403,16.69921
1453,-0.99930257,-0.24107689,21.040089
1454,0.40677986,0.30029923,17.233408
1455,0.7492526,-0.89760756,9.474381
1456,-0.2976073,-1.966003,2.755036
1457,-1.9241285,-2.955435,0.73340017
1458,-4.470391,-4.64417,0.26141587
1459,-5.2202415,-4.72074,3.0472596
1460,-2.7696922,-4.3926244,1.387239
1461,-0.99690974,-4.1386857,-0.9939187
1462,-0.56111693,-3.2380872,-2.158027
1463,-0.45074797,-2.224727,-1.777269
1464,-0.8461619,-1.2568301,-2.2633111
1465,-1.2053844,-0.5069793,-2.2010977
1466,-0.80548394,-0.016151553,-1.7676977
1467,0.3182454,0.75523466,-1.9471594
1468,1.1039885,1.5768701,-2.1508484
1469,1.1494522,2.0321047,-1.8777676
1470,0.87637126,2.4993033,-2.673082
1471,0.6726823,2.5663023,-3.418147
1472,-0.7262217,2.4705894,-5.4086766
1473,-0.39332023,2.6691937,-6.113064
1474,-1.183849,3.1770704,-6.2757754
1475,-1.3923237,2.556731,-5.940481
1476,0.100199446,1.8164514,-5.257929
1477,0.040378883,0.7600203,-5.2770715
1478,-0.4651049,0.0077766734,-4.5415773
1479,-0.77677006,-0.6987042,-3.05384
1480,-1.1479566,-1.1084751,-1.9136599
1481,-1.5239289,-1.2927225,-0.81655073
1482,-1.8906289,-1.5729818,-0.60329044
1483,-2.3336003,-1.9013968,-0.4884349
1484,-2.6258237,-1.9468603,-0.4884349
1485,-1.9408783,-1.5514464,-0.25842485
1486,-1.3540385,-0.83778703,0.6349953
1487,-0.6161518,-0.38494533,3.1480572
1488,2.888436,-5.6072807,58.61817
1489,-10.025628,-12.472588,5.715855
1490,-5.919843,-11.4018,-13.457534
1491,1.0007981,-7.303194,-16.403996
1492,1.6621144,-5.6168523,-12.197713
1493,2.6464617,-8.283054,-0.08584251
1494,-5.47418,-27.770203,13.496417
1495,2.2130618,-77.65906,78.709206
1496,-23.744577,-77.65906,8.0563345
1497,-8.478069,-56.130535,-13.208381
1498,-5.5965133,-22.119253,-16.049559
1499,-3.5673995,-9.631709,-13.821841
1500,-3.99392,-2.1768703,-12.492329
1501,-4.252345,0.39840496,-5.8304114
1502,-4.252345,0.39840496,-5.8304114
1503,-3.6607196,5.2109694,8.7679
1504,-3.315854,6.0565333,11.256735
1505,-3.3278182,6.9786673,8.705687
1506,-2.841477,4.4611187,6.250053
1507,-3.7806597,4.11386,7.620542
1508,-2.0676978,2.9063823,4.9543395
1509,-2.3599212,-4.4093738,6.273981
1510,5.442176,-11.646167,11.886645
1511,7.274779,-14.930316,13.079767
1512,4.222734,-14.571094,11.764611
1513,1.8128623,-10.187443,10.185946
1514,-1.1455638,-5.671887,7.328019
1515,-2.5588248,-2.6222346,4.9806604
1516,-2.2307088,-0.634098,5.0165524
1517,-1.9289142,-0.05922236,6.1160545
1518,-2.2642083,-0.70588267,6.5808606
1519,-3.2679975,-2.184049,8.425427
1520,-3.5434713,-3.513561,9.967901
1521,-4.156632,-3.867998,9.991829
1522,-5.3976097,-3.8129628,9.948758
1523,-6.329315,-3.472883,8.396415
1524,-5.5244293,-3.417549,7.819146
1525,-3.6248271,-3.499204,8.07787
1526,-2.1589243,-3.8488553,8.758329
1527,-0.62811595,-4.052544,8.942576
1528,-0.817448,-3.5231323,9.196515
1529,-2.6258237,-2.8378878,9.112766
1530,-4.1279182,-1.9444675,9.364311
1531,-4.8299127,-1.9013968,8.904291
1532,-4.7745786,-1.7407784,8.319844
1533,-4.518247,-1.8559331,8.533105
1534,-4.3005004,-2.5600212,9.012267
1535,-4.5592246,-2.9482565,9.910473
1536,-4.470391,-3.0032916,9.728319
1537,-4.4368916,-2.8091738,9.436096
1538,-4.9399824,-2.3228326,8.844471
1539,-5.181957,-1.6881363,8.403593
1540,-5.0599227,-1.5418751,8.523534
1541,-4.769793,-1.8005991,8.633603
1542,-4.90409,-2.11705,9.131908
1543,-5.1436715,-2.2007985,9.496216
1544,-4.88734,-2.140978,9.967901
1545,-4.6262236,-1.7838492,9.55125
1546,-4.458427,-1.4318053,9.8937235
1547,-4.453641,-1.244866,9.876974
1548,-4.484748,-1.1443675,9.462418
1549,-4.403392,-1.230509,9.270991
1550,-4.6932225,-1.474876,9.692428
1551,-4.901697,-1.6713866,10.01815
1552,-4.9902315,-1.7862421,10.252946
1553,-5.1341,-1.8487546,10.662717
1554,-5.215456,-1.9325033,10.8352995
1555,-5.7281184,-1.9947168,11.59203
1556,-5.634798,-1.9013968,11.318949
1557,-5.6132627,-1.9755741,10.689038
1558,-5.6539407,-2.0952153,10.720144
1559,-5.6300125,-2.1864417,10.732109
1560,-5.7400823,-2.2199411,10.619646
1561,-5.9342003,-2.1936202,10.959726
1562,-5.946164,-2.167299,10.564611
1563,-6.084948,-2.4116662,10.705788
1564,-6.135496,-2.3829522,10.6770735
1565,-6.149853,-2.5289145,10.82812
1566,-6.1857457,-2.536093,10.966905
1567,-5.936593,-2.3682961,10.590932
1568,-5.6994042,-1.9683957,10.087841
1569,-5.366503,-1.7431713,9.855438
1570,-5.0548377,-1.8053846,9.7043915
1571,-4.959125,-1.9181465,9.527323
1572,-4.6956153,-2.0617158,9.527323
1573,-4.5616174,-1.9492532,9.539287
1574,-4.6501517,-1.841277,10.054341
1575,-4.5999026,-1.9707886,10.106984
1576,-4.6525445,-2.2606192,9.888938
1577,-4.5448675,-2.454737,9.230313
1578,-4.7339005,-2.7469604,8.789435
1579,-5.035695,-2.9673991,8.657532
1580,-5.2896338,-2.9817562,8.846864
1581,-4.700401,-2.804388,8.336594
1582,-4.3483567,-2.7014968,9.146265
1583,-3.7037904,-2.8642087,9.706784
1584,-3.4259238,-3.281158,10.485349
1585,-3.3756745,-3.3003006,11.172986
1586,-3.5506496,-3.309872,11.306984
1587,-3.8524444,-2.8666015,10.696217
1588,-4.235595,-2.3276181,9.527323
1589,-4.2260237,-2.0641086,8.63121
1590,-3.8931224,-2.4475584,8.705687
1591,-3.7328033,-3.0607193,9.081659
1592,-3.1600213,-4.390231,8.885149
1593,-2.475076,-6.067002,8.820542
1594,-1.8475581,-7.643274,7.481459
1595,-1.4712868,-9.679565,6.726823
1596,-1.7204394,-10.647163,4.975875
1597,-2.2019951,-11.215159,2.9778678
1598,-3.519543,-11.710773,-0.2416751
1599,-3.8739798,-10.299905,-2.778366
1600,-5.2226343,-15.126826,-3.2479577
1601,-3.9625144,-18.042181,-6.201598
1602,-4.6118665,-21.391235,-4.8625145
1603,-8.3632145,-30.44119,-6.014659
1604,-9.599107,-37.534412,-5.1332026
1605,-8.190632,-36.133118,-3.2790644
1606,-5.7520466,-27.446873,-2.3162522
1607,-4.8705907,-22.674986,-0.85483587
1608,-2.7481568,-14.1110735,8.475677
1609,-0.99690974,-9.29133,12.2940235
1610,-0.3717848,-5.5280185,15.024833
1611,-0.56350976,-2.2223341,17.6025
1612,0.18634106,-0.43758744,15.640387
1613,0.81625164,-0.29162526,11.752647
1614,0.6678966,-1.0917253,5.1385865
1615,-0.25932217,-2.6222346,1.114158
1616,-0.42203408,-3.374478,0.84825563
1617,-0.66161543,-2.969792,1.2221341
1618,-0.7501499,-2.5289145,0.5943173
1619,-0.6017949,-2.6006992,-0.53389853
1620,-1.0450653,-2.7948167,-0.663111
1621,-1.0136595,-1.8846469,-0.0738784
1622,-0.48185465,-0.8066803,-0.9939187
1623,-0.5204389,-0.17168503,-1.3603196
1624,-0.7405786,0.36490545,-2.0551355
1625,-0.71665037,0.9302098,-2.3808584
1626,-0.4435695,1.4141582,-2.3808584
1627,-0.3382853,1.5936198,-2.1556342
1628,-0.73100734,1.6633109,-1.9304097
1629,-1.2867404,1.6369898,-2.2585254
1630,-1.3181462,2.1134605,-3.5306098
1631,-1.9336998,2.338685,-5.241179
1632,-2.705086,2.4320052,-7.138388
1633,-4.132704,1.1243275,-6.829116
1634,-4.2909293,0.57577294,-4.8098726
1635,-2.7553353,0.7049854,-4.299603
1636,-1.7706888,0.36729828,-3.4277184
1637,-2.1421745,-0.31316066,-2.3904297
1638,-2.2905295,-0.6987042,-1.422533
1639,-2.2331018,-0.91435736,-0.49082774
1640,-2.25703,-1.0268201,-0.14087744
1641,-2.2139592,-1.1180464,-0.1794617
1642,-2.1182463,-1.0773684,-0.11934203
1643,-1.7682959,-0.8641081,-0.102592275
1644,-1.509572,-0.5407779,0.36909288
1645,-1.0546366,-0.1692922,0.8985049
1646,-0.25932217,-0.0041874396,7.5723863
1647,-0.13220344,-2.5576284,30.61467
1648,-4.681258,-7.7368927,19.046867
1649,-7.1078796,-8.759525,-10.939985
1650,-1.3683954,-6.8575306,-11.265708
1651,-0.90119684,-6.1917276,-10.412966
1652,-1.5984055,-8.302197,-7.2125654
1653,-7.689934,-27.823143,13.393526
1654,1.4153546,-77.65906,70.27481
1655,-12.461821,-77.65906,23.802006
1656,-14.363815,-62.51937,-10.2978115
1657,-3.9696927,-34.647774,-18.011374
1658,-0.73818576,-7.69113,-7.5933237
1659,-5.201099,-0.68195444,-6.9323063
1660,-6.1905313,1.3372887,-4.179962
1661,-5.3593245,3.3065817,-1.2116655
1662,-4.9567323,5.3018966,5.4260244
1663,-3.342175,6.3942204,6.916155
1664,-1.1647065,6.0948186,7.7665043
1665,-2.120639,4.11386,8.432606
1666,-2.4726832,4.104289,11.647364
1667,-1.3779668,4.2239304,9.369097
1668,-1.8185452,1.5601203,0.029012974
1669,-7.536793,-3.5973098,8.485249
1670,-6.0346985,-8.838788,14.335101
1671,-1.6677973,-12.043974,16.476677
1672,-0.78634137,-12.055938,10.940583
1673,-0.053240303,-8.649456,7.4790664
1674,-0.3909274,-5.3365927,6.940083
1675,-1.6606189,-3.5422747,6.259624
1676,-3.1866415,-1.7240287,5.4164534
1677,-2.94706,-0.3681956,6.161518
1678,-1.8017955,0.39361933,6.966404
1679,-0.89401835,-0.5694918,7.9893355
1680,-1.3058829,-2.6198416,9.634999
1681,-2.6596224,-4.5484567,9.776475
1682,-4.5879383,-4.684848,10.164412
1683,-6.806085,-3.7292142,8.803793
1684,-7.1078796,-3.702594,8.027621
1685,-5.58425,-3.2309089,7.9151583
1686,-4.113561,-2.8570302,8.2145605
1687,-2.3336003,-1.9253249,8.020442
1688,-1.3827524,-1.5538392,8.185846
1689,-1.4784653,-1.7383857,8.976375
1690,-1.9480567,-1.9157536,8.971589
1691,-3.1576285,-2.373082,9.189336
1692,-4.139882,-2.7110682,9.275777
1693,-4.712365,-2.7445676,8.413164
1694,-4.983053,-2.3108685,8.274381
1695,-5.1675997,-2.2438695,8.267202
1696,-4.7506504,-2.0258234,8.413164
1697,-4.7988057,-1.9301106,8.86122
1698,-4.573581,-1.5924234,9.029017
1699,-4.1279182,-1.5059828,8.923434
1700,-4.3244286,-1.6307086,8.243274
1701,-4.6669016,-1.7934206,8.463713
1702,-5.1341,-2.097608,9.357133
1703,-5.215456,-2.3132613,9.309277
1704,-5.502894,-2.2582264,9.431311
1705,-5.215456,-1.966003,9.431311
1706,-5.6563334,-1.6642082,9.220443
1707,-5.5651073,-1.3456637,9.232706
1708,-5.368896,-1.1060823,9.347562
1709,-5.0309095,-0.89042914,9.335598
1710,-5.246563,-1.0052847,9.5919285
1711,-5.366503,-1.230509,9.896116
1712,-5.649155,-1.4653047,10.140483
1713,-6.0346985,-1.6211374,9.936794
1714,-6.2120667,-1.6426728,10.071092
1715,-6.27428,-1.5131612,10.2361965
1716,-6.101698,-1.2400804,10.150055
1717,-5.9318075,-1.2281163,10.66511
1718,-5.7520466,-1.1515459,11.081759
1719,-5.708976,-1.2640085,10.93819
1720,-5.785546,-1.4676976,11.414961
1721,-5.7017975,-1.5155541,11.247164
1722,-5.826224,-1.462912,10.940583
1723,-6.101698,-1.489233,11.306984
1724,-6.2407804,-1.4868401,11.383854
1725,-6.0753765,-1.3094722,10.806286
1726,-6.058627,-1.3935201,11.000404
1727,-6.02752,-1.4724833,10.868798
1728,-6.221638,-1.4198412,10.535598
1729,-6.497112,-1.5658033,10.779965
1730,-6.4492555,-1.5011971,10.097412
1731,-6.2288165,-1.5275182,9.932009
1732,-6.1331034,-1.6354942,9.752248
1733,-5.658726,-1.8125632,9.510572
1734,-5.5387864,-2.05693,9.958329
1735,-5.229813,-2.3204398,9.917651
1736,-4.9256253,-2.332404,9.627821
1737,-5.2369914,-2.4188447,9.680463
1738,-5.15085,-2.4308088,9.479167
1739,-5.0958147,-2.478665,9.304491
1740,-4.7267222,-2.5121646,8.671888
1741,-5.395217,-2.5432713,9.963116
1742,-4.65733,-2.6799614,9.052945
1743,-4.2020955,-2.6919255,9.06491
1744,-4.0130625,-2.8139594,8.949755
1745,-3.7974095,-2.9386854,9.098409
1746,-3.2703903,-3.0296125,8.377272
1747,-3.1767712,-3.4776685,8.374879
1748,-3.5650067,-3.5279179,9.3308115
1749,-4.3292146,-3.6355948,9.019445
1750,-4.458427,-2.9889345,9.977472
1751,-4.590331,-2.2342982,9.807582
1752,-4.499105,-1.5490535,9.953544
1753,-4.7745786,-1.3241283,9.721141
1754,-5.1675997,-1.5610176,9.611072
1755,-4.9543395,-2.3371894,11.06501
1756,-4.772186,-3.7292142,10.162019
1757,-3.9481573,-4.8119664,9.891331
1758,-2.5612175,-5.631209,6.95444
1759,-1.7204394,-6.8336024,7.835896
1760,-1.0833504,-7.949854,6.655038
1761,-1.7180467,-8.354839,4.302594
1762,-2.7098715,-8.766704,1.1596217
1763,-3.7181473,-8.9057865,-2.251347
1764,-5.1699924,-11.430513,-3.025126
1765,-7.1270223,-14.858531,-4.534399
1766,-6.50429,-18.923637,-9.169596
1767,-2.8510482,-23.803501,-7.739585
1768,-4.7171507,-30.10111,-3.6314075
1769,-6.439684,-39.481873,-1.8394824
1770,-6.3676,-35.366516,-1.3842479
1771,-6.0418773,-28.512875,-3.2240293
1772,-4.305286,-21.599411,-2.3976083
1773,-0.6161518,-13.859528,0.012263216
1774,2.3374887,-7.612167,13.187444
1775,2.2417758,-3.58056,18.388245
1776,1.1039885,-1.6139588,19.741684
1777,0.770788,-1.0749756,17.810976
1778,0.2222334,-2.2510478,8.645567
1779,-0.71425754,-3.214159,2.5034907
1780,-1.3372887,-3.92064,0.6541379
1781,-0.7405786,-3.2907293,2.2929223
1782,-0.8341978,-2.1529422,5.7759748
1783,-2.245066,-2.1047866,3.9361932
1784,-1.820938,-2.8283165,1.6387844
1785,-1.8930218,-3.1827533,-1.017847
1786,-1.3731811,-2.4284158,-2.9509485
1787,-0.7070791,-1.3504493,-3.3631122
1788,-0.90119684,-0.3801597,-3.7821553
1789,-1.1288141,0.30269206,-3.964309
1790,-1.3133606,0.817448,-4.002594
1791,-1.4856437,1.2511472,-3.583252
1792,-1.9624137,1.5409778,-3.1929228
1793,-2.4320052,1.7494525,-2.4765713
1794,-2.8725836,2.1278176,-2.2058833
1795,-3.205784,2.76042,-3.0801609
1796,-2.242673,3.7977087,-4.165605
1797,-3.6343985,3.723232,-6.3622165
1798,-3.653541,2.1158533,-5.6506505
1799,-3.6248271,1.2080764,-3.7654054
1800,-3.7758741,0.21385853,-2.673082
1801,-2.7529426,-0.21714866,-1.5496517
1802,-2.1397817,-0.4447659,0.029012974
1803,-1.8400806,-0.46630132,0.72382885
1804,-1.3444673,-0.5192425,1.0447662
1805,-0.78873414,-0.49262238,1.1380863
1806,-0.5778667,-0.6269195,1.0447662
1807,-0.66400826,-0.7537391,0.7692925
1808,-0.70229346,-0.8665009,0.37387854
1809,-0.41964126,-0.8066803,0.22552353
1810,0.77318084,-1.1874382,4.453641
1811,5.267201,-6.0454664,36.63232
1812,-5.378467,-8.285447,-0.9170493
1813,-5.2489557,-9.473484,-13.112668
1814,-4.721936,-11.444871,-10.997413
1815,-8.368,-17.021643,2.1323042
1816,-11.393425,-33.12893,27.960732
1817,-10.016056,-58.87839,10.9070835
1818,-6.774978,-73.83324,9.656535
1819,-4.9112687,-53.30162,26.8705
1820,-8.511569,-33.34937,4.182953
1821,-3.739982,-19.338194,-15.58236
1822,-1.0423734,-12.530016,-14.65544
1823,-0.8533404,-6.7594247,-3.8204405
1824,-4.269394,-3.513561,4.058227
1825,-6.3915286,-1.7120646,6.24766
1826,-5.36411,-1.1515459,4.38395
1827,-2.935096,0.25214368,2.4269204
1828,-0.81266236,1.1482558,3.3756745
1829,0.38763726,1.7709879,8.212168
1830,1.5924234,2.3697917,12.001801
1831,3.2213376,0.76959157,9.469596
1832,3.350849,-3.3194432,7.7473617
1833,3.6550367,-10.6017,8.616854
1834,3.0921252,-13.833207,9.819546
1835,-0.06759724,-14.240585,10.698609
1836,-3.667898,-12.15165,11.057832
1837,-4.5134616,-8.932108,8.720044
1838,-3.0858438,-5.398806,4.5804605
1839,-2.2785654,-2.0880368,2.8055844
1840,-1.8185452,0.69541407,2.989832
1841,-2.0748763,1.8523438,3.8497524
1842,-2.6596224,2.1807587,5.2513485
1843,-2.6548367,0.18993029,6.1710896
1844,-2.3479571,-2.926721,8.635996
1845,-2.9132617,-4.9172506,10.116555
1846,-3.8333018,-5.3676996,10.904691
1847,-5.174778,-5.0249276,10.039985
1848,-4.985446,-3.8416767,9.637392
1849,-3.99392,-3.0702906,8.923434
1850,-2.5253253,-2.8713872,7.591529
1851,-1.9695921,-2.2965117,7.469495
1852,-1.9408783,-2.2510478,6.952047
1853,-2.3814569,-2.1481566,7.581958
1854,-2.906083,-2.5384858,8.006085
1855,-3.6320057,-3.3720853,8.475677
1856,-4.4775696,-3.731607,9.112766
1857,-4.5592246,-3.6284165,9.982258
1858,-4.712365,-3.2859437,10.392029
1859,-4.788935,-2.9096723,9.958329
1860,-5.2345986,-2.4643083,9.347562
1861,-5.541179,-2.0712872,8.834899
1862,-5.395217,-1.8966111,9.04816
1863,-5.6132627,-2.0162523,9.359526
1864,-4.892126,-2.315654,9.460024
1865,-4.377071,-2.1337996,9.728319
1866,-4.1662035,-2.0162523,9.247063
1867,-4.2308097,-1.9396819,10.047163
1868,-4.5305104,-1.82692,9.706784
1869,-5.308776,-1.6331015,9.836296
1870,-5.7376895,-1.5251254,9.915258
1871,-5.680262,-1.4126626,9.989436
1872,-5.2944193,-1.2759727,9.71157
1873,-5.0141597,-1.1946167,9.383454
1874,-4.999803,-1.4006985,9.819546
1875,-5.023731,-1.5418751,10.2361965
1876,-5.093422,-1.6881363,10.240982
1877,-5.581857,-1.625923,10.298709
1878,-5.9844494,-1.474876,10.26491
1879,-6.003592,-1.4940187,10.372886
1880,-5.826224,-1.7958134,11.101202
1881,-5.555536,-1.7551354,11.194522
1882,-5.3976097,-1.8655044,11.06501
1883,-5.328218,-1.9085752,10.7177515
1884,-5.2872405,-1.8436699,10.638788
1885,-5.217849,-2.0904298,10.952547
1886,-5.205885,-2.126621,10.669895
1887,-5.215456,-2.0425732,10.763215
1888,-5.296812,-2.004288,10.796715
1889,-5.3904314,-2.11705,11.045868
1890,-5.462216,-2.1720848,10.492527
1891,-5.6132627,-2.3012972,10.325029
1892,-5.5459647,-2.2319052,9.747462
1893,-5.388038,-2.3587248,9.249456
1894,-5.2633123,-2.1529422,9.19173
1895,-5.1293144,-2.0784655,9.119945
1896,-4.932804,-2.1242282,9.26142
1897,-4.8251266,-2.155335,9.232706
1898,-4.7195435,-2.2725832,9.404989
1899,-4.5038905,-2.3060827,9.117552
1900,-4.3244286,-2.1984057,8.777472
1901,-4.0034914,-2.248655,8.770293
1902,-3.8404803,-2.4212375,8.882756
1903,-3.6774693,-2.6246274,9.072088
1904,-3.6367912,-2.751746,9.32124
1905,-3.7133617,-2.7086751,9.29492
1906,-3.6918263,-2.5384858,9.098409
1907,-3.9840498,-2.4332016,8.770293
1908,-4.147061,-2.5600212,9.381062
1909,-4.022634,-2.6632116,9.050552
1910,-3.737589,-2.8259234,8.635996
1911,-3.1719856,-2.9769704,8.868399
1912,-2.7768707,-3.3194432,8.873184
1913,-2.4966114,-3.4872398,8.791828
1914,-2.2618155,-3.9780676,9.017053
1915,-2.038984,-4.47398,9.165408
1916,-1.9193429,-5.144868,9.311669
1917,-1.8017955,-5.7341003,8.995518
1918,-1.334896,-6.426523,8.073085
1919,-1.5936198,-7.2792654,6.834799
1920,-3.0978081,-8.773883,3.4187453
1921,-3.8955152,-11.009078,2.7670002
1922,-4.82752,-13.009178,4.417749
1923,-5.8911295,-14.851353,1.6938193
1924,-6.969096,-17.29951,-2.8265216
1925,-6.355636,-18.83271,-3.4301112
1926,-6.4827547,-22.97678,-3.5090744
1927,-6.8395844,-30.510881,-3.5306098
1928,-8.193025,-38.21218,-4.6492543
1929,-5.5675,-35.682667,-2.8815567
1930,-2.9949167,-29.289047,-1.2335001
1931,-1.1694921,-22.514666,1.2077773
1932,-0.2856432,-18.26262,3.8138602
1933,0.18155542,-12.695419,5.921937
1934,-0.21834506,-9.396914,5.783153
1935,0.6559325,-5.8130636,9.855438
1936,2.2345972,-2.2582264,16.555641
1937,3.5904303,0.13968103,15.034404
1938,2.6225336,-1.4868401,6.0227346
1939,1.0917253,-2.9817562,2.5325036
1940,0.526421,-2.2917259,3.7420754
1941,-0.59940207,-1.0462617,8.226524
1942,-2.5971098,-0.65324056,12.255738
1943,-0.49142596,-0.20039889,3.138486
1944,-0.64965135,-1.0339985,-3.0801609
1945,-1.5143577,-1.5948163,-5.2770715
1946,-2.1996021,-1.3671991,-5.226523
1947,-2.8845477,-1.0654043,-5.0829535
1948,-2.245066,-0.34187454,-4.6707897
1949,-1.7419748,0.2545365,-4.42403
1950,-1.4521443,0.96849495,-3.6792638
1951,-1.579263,1.2631112,-2.8576283
1952,-1.5888343,1.8667008,-2.1053848
1953,-1.8906289,2.1879373,-1.2406785
1954,-2.2785654,2.350649,-1.0992029
1955,-2.3694925,2.8322048,-2.5052853
1956,-2.9973094,3.3592238,-4.3378882
1957,-2.309672,3.6059837,-5.3368917
1958,-3.0906296,2.4418755,-4.8792644
1959,-3.5961134,1.3540385,-4.2828536
1960,-3.0786655,0.56859446,-3.1522448
1961,-2.105983,-0.12861422,-1.3100704
1962,-1.509572,-0.15732808,-0.4764708
1963,-1.0016954,-0.24107689,0.19680966
1964,-0.8844471,-0.31316066,0.2638087
1965,-0.84855473,-0.4232305,0.11515459
1966,-1.0304092,-0.48305106,0.14656039
1967,-1.1479566,-0.552742,0.6206384
1968,-1.1934203,-0.62931234,1.0615159
1969,-0.17288144,-0.65084773,5.306383
1970,2.617748,-2.8642087,32.021053
1971,2.6416762,-7.1808605,37.351063
1972,-6.020342,-9.190832,-2.8815567
1973,-8.947661,-6.6275206,-25.588547
1974,-3.0020952,-6.5724854,-11.711371
1975,-2.4894328,-8.498408,-8.668898
1976,-3.3206396,-11.928819,-2.9030921
1977,-11.196915,-34.707592,8.614461
1978,5.782256,-77.65906,78.709206
1979,-24.413073,-77.65906,20.445772
1980,-12.5913315,-53.886066,-18.250956
1981,-2.0557337,-23.724237,-24.460032
1982,1.3456637,-14.3004055,-27.301208
1983,2.292025,-2.902494,-13.227524
1984,0.5985048,0.22103699,-0.62482584
1985,-2.4391835,2.3889344,7.0669026
1986,-1.6510476,4.5185466,7.804789
1987,-0.70229346,4.161717,7.931908
1988,-0.11784652,3.8383865,8.875577
1989,0.39720857,2.7628129,10.013365
1990,-0.47946185,2.2932215,14.984155
1991,-1.9767706,0.5949155,7.3642106
1992,-5.299205,-2.414059,6.003293
1993,-4.930411,-12.103794,2.4197419
1994,2.3255246,-14.673985,8.362915
1995,3.269493,-14.415261,7.673184
1996,3.0897322,-13.445271,7.9127655
1997,-0.1369891,-10.326226,10.224232
1998,-2.6090739,-7.4443703,8.693723
1999,-2.582753,-5.2716875,5.718248
2000,-1.6319051,-3.0391839,4.2260237
2001,-1.5502499,-1.5634105,4.4129634
2002,-2.283351,-1.1922239,6.343672
2003,-2.5301108,-1.992324,7.795218
2004,-3.313461,-4.5003014,8.688937
2005,-3.2871401,-6.230013,8.700901
2006,-3.5554354,-6.824031,8.49482
2007,-3.8165522,-6.634699,8.236095
2008,-4.4081774,-5.4729834,7.6277204
2009,-4.788935,-4.1458645,7.927122
2010,-3.8093736,-2.5193431,7.927122
2011,-2.5899315,-1.4844474,7.656434
2012,-2.0988045,-1.0172487,8.221739
2013,-1.8906289,-1.5107684,8.741579
2014,-2.8031917,-3.3553355,8.832506
2015,-4.022634,-3.7244284,8.604889
2016,-4.5448675,-3.5111682,8.1738825
2017,-4.846662,-3.5877385,8.49482
2018,-4.286144,-3.973282,8.518747
2019,-4.0130625,-3.8129628,8.892327
2020,-3.6439698,-3.5422747,8.559425
2021,-3.0260234,-3.0463624,8.525927
2022,-3.4692938,-2.672783,8.645567
2023,-3.4426737,-2.5552354,8.710473
2024,-4.185346,-2.64377,8.454142
2025,-5.0718865,-2.7732813,8.885149
2026,-5.337789,-2.9745777,8.9521475
2027,-5.6036916,-2.9338996,9.12473
2028,-5.5890355,-2.6246274,8.892327
2029,-5.38086,-2.3371894,9.072088
2030,-4.9782677,-1.6809579,8.772686
2031,-4.8323054,-1.5490535,8.870791
2032,-4.5879383,-1.4916258,9.186943
2033,-4.64058,-1.7120646,9.402596
2034,-5.083851,-2.0521445,9.9344015
2035,-5.3856454,-2.3611178,9.568001
2036,-5.637191,-2.274976,9.55125
2037,-5.9581285,-2.2271197,10.061521
2038,-5.447859,-2.033002,10.080663
2039,-4.995017,-1.7862421,9.397811
2040,-4.928018,-1.678565,9.203693
2041,-5.36411,-1.7958134,9.563215
2042,-5.5965133,-1.9803598,9.606286
2043,-5.59412,-2.097608,9.373882
2044,-5.7113686,-2.370689,10.035199
2045,-5.6060843,-2.481058,10.332209
2046,-5.6539407,-2.437987,10.339387
2047,-6.1474605,-2.4930222,10.643574
2048,-6.518647,-2.4236302,10.293923
2049,-6.3867426,-2.4332016,9.979865
2050,-6.020342,-2.4714868,9.740284
2051,-5.7759748,-2.6751757,9.778868
2052,-5.7017975,-2.7206392,9.713963
2053,-5.7687964,-2.9410782,9.94158
2054,-5.912665,-3.0894332,9.958329
2055,-5.879165,-3.1109686,10.092627
2056,-5.771189,-3.118147,9.661321
2057,-5.476573,-2.9458637,9.428918
2058,-5.15085,-2.7876384,9.292527
2059,-4.834698,-2.7876384,9.105587
2060,-4.5592246,-2.7613173,9.160623
2061,-4.35075,-3.0678978,9.100801
2062,-4.3268213,-3.1492536,9.033803
2063,-4.3555355,-3.1277182,8.686245
2064,-4.3172503,-3.0415766,8.267202
2065,-3.9840498,-2.8666015,8.303095
2066,-4.036991,-2.751746,8.549854
2067,-3.9170506,-2.7062824,8.703294
2068,-3.653541,-2.5671997,8.822935
2069,-3.5626137,-2.4619155,8.782257
2070,-3.505186,-2.3276181,8.822935
2071,-3.6463625,-2.1023939,9.292527
2072,-3.8572302,-1.841277,9.268599
2073,-3.7280176,-1.4940187,9.433703
2074,-3.313461,-1.2759727,9.599107
2075,-3.042773,-1.3648062,9.086445
2076,-2.6282165,-1.678565,8.626425
2077,-2.515754,-2.0712872,9.012267
2078,-2.515754,-2.0712872,9.012267
2079,-1.7443677,-3.3864422,9.812367
2080,-1.8690935,-4.282554,9.740284
2081,-2.2642083,-4.991428,8.226524
2082,-2.1637099,-5.6120663,8.142476
2083,-3.6846478,-7.5379896,6.168697
2084,-4.961518,-9.372986,3.370889
2085,-6.331708,-11.749357,4.915755
2086,-8.114061,-14.283656,3.231806
2087,-8.588439,-17.086248,0.11515459
2088,-7.879266,-18.161823,-2.2899313
2089,-5.0333023,-19.69263,-2.4837499
2090,-7.0193453,-24.435804,-4.3498526
2091,-6.3867426,-30.649666,-1.8490537
2092,-6.0825553,-36.44209,-2.9772696
2093,-5.7113686,-36.971504,-4.1775694
2094,-4.5014977,-31.593634,-2.4358935
2095,-2.9614172,-25.4372,-0.89312106
2096,-1.2340983,-20.042282,2.2809582
2097,-1.238884,-15.347265,4.2451663
2098,-1.5119648,-11.088041,3.952943
2099,-1.0136595,-7.430013,5.1003013
2100,0.26291138,-3.6762729,12.933505
2101,1.2834502,-0.9239286,17.595322
2102,1.233201,-1.6977077,10.777573
2103,0.62482584,-3.5590246,6.1471615
2104,-0.10109676,-2.5241287,13.446168
2105,-5.371289,-4.100401,18.395422
2106,-4.0920258,-4.47398,8.993125
2107,-2.6282165,-3.9134614,-0.29671
2108,-2.2498515,-3.7914274,-7.912167
2109,-1.9480567,-3.9349968,-6.491429
2110,-2.417648,-2.900101,-7.2436724
2111,-1.3396816,-1.7766708,-4.6037908
2112,-0.5204389,-0.18125631,-3.269493
2113,-0.096311115,1.0019945,-2.7903304
2114,-0.089132644,1.7757735,-2.7424738
2115,-0.43639103,2.096711,-1.9615164
2116,-0.7791629,2.2046869,-1.4727824
2117,-1.0642079,2.1735802,-1.1590235
2118,-1.3253247,2.0297117,-1.1566306
2119,-1.8523438,1.8978075,-1.5568303
2120,-2.9183464,2.1445673,-3.7893338
2121,-1.9648064,2.638087,-6.649654
2122,-2.0700908,3.2081769,-8.005487
2123,-2.1852453,3.7088752,-7.6678
2124,-1.5960127,3.1603205,-5.940481
2125,-2.71705,1.2846466,-3.3918262
2126,-2.1661026,0.5587241,-1.8346968
2127,-1.5406786,0.22103699,-0.74476606
2128,-1.076172,0.005383851,-0.11934203
2129,-0.8341978,-0.10707881,0.3044867
2130,-0.7692925,-0.17647067,0.3475575
2131,-0.72382885,-0.24616162,0.1369891
2132,-0.78873414,-0.25812575,0.25902304
2133,-0.89401835,-0.29641092,0.46031925
2134,-0.9586246,-0.37776688,0.4531408
2135,-0.99930257,-0.48305106,0.5273183
2136,-0.9418748,-0.42801616,0.5608178
2137,-0.73579293,-0.42562333,0.60388863
2138,0.100199446,-2.5193431,31.61128
2139,-2.8606195,-7.2912297,28.389345
2140,-4.9974103,-6.404988,-12.231212
2141,-0.38614175,-5.669494,-14.72244
2142,0.9720842,-6.387939,-8.431708
2143,-1.5960127,-15.337694,-3.2312078
2144,-9.699904,-41.757748,7.819146
2145,11.504991,-77.65906,78.709206
2146,-22.158733,-77.65906,37.200016
2147,-7.3139615,-58.061543,-17.065311
2148,-3.0643084,-25.159334,-29.433214
2149,-1.2891332,-9.435199,-22.074087
2150,-0.31914273,-2.8019953,-8.927621
2151,-1.91695,0.27846473,0.6664011
2152,-4.1422753,2.3171496,6.8635125
2153,-4.0704904,3.3759737,9.546465
2154,-3.818945,3.3640096,9.407382
2155,-3.5362928,1.6992031,4.4368916
2156,-3.289533,1.6079768,3.7325041
2157,-3.1360931,2.056033,8.650353
2158,-1.198206,1.9268204,7.1629148
2159,0.59611195,-5.762814,7.8143606
2160,6.6589265,-11.952747,9.668499
2161,8.68804,-14.762818,10.372886
2162,4.141378,-13.878671,11.9515505
2163,-1.8400806,-10.858031,10.8352995
2164,-2.8701909,-7.5667033,8.07787
2165,-1.957628,-2.6895328,4.640281
2166,0.095413804,3.644269,1.8424734
2167,0.6678966,9.410374,3.7253258
2168,-2.0892332,6.9044895,6.8874407
2169,-3.9290147,2.908775,9.71157
2170,-3.2201412,-1.3911272,10.617253
2171,-3.0619156,-4.6465626,11.862718
2172,-3.5578282,-5.7867427,10.705788
2173,-3.9864426,-5.4729834,9.230313
2174,-3.1456645,-4.3064823,7.3256264
2175,-2.8965118,-3.362514,7.3522468
2176,-3.124129,-3.170789,8.799007
2177,-3.5769708,-3.1085758,10.643574
2178,-4.295715,-2.5289145,10.296316
2179,-4.247559,-1.7647067,10.20509
2180,-5.36411,-1.2879368,10.015758
2181,-5.960521,-1.0244272,9.498609
2182,-5.215456,-1.096511,9.15823
2183,-4.7602215,-1.2687942,9.115159
2184,-4.8179483,-1.5131612,9.381062
2185,-5.181957,-1.6067804,10.087841
2186,-5.5627146,-1.6642082,10.567004
2187,-5.979664,-1.8245273,10.238589
2188,-5.6611195,-1.5900307,10.389636
2189,-5.639584,-1.3046865,10.382458
2190,-5.256134,-1.2879368,11.309377
2191,-4.5472603,-1.0435698,10.830514
2192,-4.5014977,-1.16351,11.582458
2193,-4.4799623,-1.2903296,11.462817
2194,-4.4871407,-1.3648062,11.314163
2195,-4.880162,-1.678565,12.061621
2196,-5.0766726,-1.8726828,11.817254
2197,-5.2250276,-1.9564316,11.556137
2198,-5.361717,-2.1888344,11.82204
2199,-5.1269217,-2.289333,11.489138
2200,-4.9902315,-2.155335,10.897512
2201,-5.258527,-2.1314068,10.784751
2202,-5.459823,-2.2582264,10.530812
2203,-5.560322,-2.399702,10.516456
2204,-5.5965133,-2.5265217,10.593325
2205,-5.581857,-2.7062824,10.662717
2206,-5.4239306,-2.8713872,10.339387
2207,-5.1771708,-2.8474588,10.372886
2208,-4.999803,-2.9243283,10.032806
2209,-4.901697,-3.0032916,9.965508
2210,-4.81077,-2.9937203,9.987043
2211,-4.8179483,-2.900101,10.059127
2212,-4.6788654,-2.8307092,10.202697
2213,-3.859623,-2.845066,9.594321
2214,-3.449852,-2.6799614,9.721141
2215,-3.3661032,-2.6485555,9.84826
2216,-3.246462,-2.8809586,9.127123
2217,-3.0020952,-2.9195428,8.604889
2218,-3.222534,-3.1133614,9.057731
2219,-3.6248271,-3.266801,8.969196
2220,-3.679862,-3.429513,9.000303
2221,-3.696612,-3.2356944,9.215657
2222,-3.7567315,-3.024827,9.347562
2223,-3.7447674,-2.6054847,8.803793
2224,-3.5075788,-2.126621,8.875577
2225,-3.5243287,-1.8340986,8.803793
2226,-3.3589249,-1.7264216,9.210872
2227,-3.0020952,-1.9348962,9.807582
2228,-2.6042883,-2.5648067,9.922438
2229,-2.0509481,-3.3170505,9.747462
2230,-1.1766706,-4.232006,9.165408
2231,-0.76689965,-5.137689,8.463713
2232,-0.6448657,-5.702994,7.9247293
2233,-0.99690974,-6.6107707,8.777472
2234,-2.01027,-7.652845,7.359425
2235,-3.1456645,-8.66142,5.7640104
2236,-4.540082,-9.914362,4.659424
2237,-5.2633123,-9.739387,2.242374
2238,-5.6730833,-13.217653,1.0328021
2239,-4.147061,-15.026328,-1.1709876
2240,-3.5123646,-15.143577,-3.013162
2241,-4.6381874,-17.517555,-4.5726843
2242,-5.8743796,-24.677778,-5.792126
2243,-8.087741,-33.567413,-5.7487564
2244,-7.4216385,-39.213577,-4.0959144
2245,-4.9974103,-33.921852,-2.1340988
2246,-4.7339005,-27.686453,-2.838486
2247,-3.6846478,-21.427128,-2.1628125
2248,-2.2331018,-16.123438,-0.15074782
2249,-0.64965135,-11.373086,5.258527
2250,0.62482584,-6.1028943,12.785151
2251,1.6211374,-1.5681962,20.033907
2252,2.3446672,0.44147578,20.517857
2253,1.355235,-1.5586249,10.116555
2254,0.01375873,-3.2237303,3.9338005
2255,-0.9849456,-2.5839493,5.1696935
2256,-6.8395844,-3.6140594,13.506288
2257,-8.681759,-4.531707,12.559926
2258,-6.1450677,-4.36391,2.077269
2259,-3.0332017,-4.2801614,-1.8394824
2260,-2.3790638,-3.5350964,-5.0183473
2261,-1.7228323,-2.3682961,-7.0543404
2262,-1.2077773,-1.7096717,-5.2603216
2263,-0.9490533,-0.77796644,-4.5966125
2264,-0.80787677,0.34576288,-3.923631
2265,-0.5057829,1.1051849,-2.780759
2266,-0.38853458,1.6199409,-1.8083757
2267,-0.21834506,1.9292133,-0.79501534
2268,-0.34067813,1.9268204,-0.20817557
2269,-0.45792642,1.7111673,-0.34217364
2270,-0.8964112,1.5026926,-1.0609177
2271,-1.4210376,1.591227,-2.2704897
2272,-1.3971093,1.9100707,-3.621537
2273,-1.5598212,2.3482563,-5.253143
2274,-1.0953146,2.6069803,-6.309574
2275,-0.99690974,2.6811578,-5.7320065
2276,-1.7754744,2.0703897,-4.409673
2277,-1.5502499,0.8150552,-2.5869403
2278,-1.3636098,0.12053844,-1.4970096
2279,-1.3058829,-0.19082761,-0.9843474
2280,-1.1288141,-0.30119655,-0.55064833
2281,-1.0423734,-0.39690945,-0.3493521
2282,-1.1431711,-0.4854439,-0.32542387
2283,-1.2628121,-0.66999036,-0.18185452
2284,-1.5693926,-0.8210373,-0.20578274
2285,-1.6486548,-0.8665009,-0.12412767
2286,-1.3372887,-0.7537391,0.19680966
2287,-1.0522437,-0.61734825,0.25663024
2288,-1.0713863,-0.8641081,0.19680966
2289,-2.772085,-4.5484567,23.825933
2290,-2.7696922,-4.3112683,1.6076777
2291,-1.2293127,-4.59392,-8.922835
2292,-0.9179466,-5.073083,-7.006484
2293,-10.34178,-21.242582,18.086449
2294,-18.987347,-77.65906,78.46484
2295,-14.926726,-77.65906,23.888147
2296,14.43231,-64.22515,-25.303501
2297,14.034802,-25.077679,-38.87619
2298,7.5981092,-11.306087,-27.955048
2299,1.2164512,-2.629413,-5.085346
2300,-3.2775688,1.7207385,12.8880415
2301,-5.536393,3.505186,14.845371
2302,-4.403392,2.9063823,3.7995033
2303,-2.8893332,2.609373,2.268994
2304,-2.5803602,3.481258,5.4643097
2305,-3.8644085,3.275475,10.837692
2306,-4.362714,2.4296124,13.599607
2307,-6.6622167,-0.55513483,8.72483
2308,-5.1269217,-9.253045,7.0669026
2309,2.91715,-14.228621,8.712866
2310,8.800503,-16.954643,8.78465
2311,5.7990055,-16.257435,8.410771
2312,0.92183495,-13.17219,9.146265
2313,-3.124129,-9.44477,8.470891
2314,-3.6176488,-6.172585,6.2141604
2315,-2.079662,-3.2859437,4.63071
2316,-1.6366907,-1.1228321,4.879863
2317,-1.986342,-0.21475583,6.8276205
2318,-3.5099716,-0.23389842,7.972586
2319,-3.9026937,-2.085644,8.073085
2320,-2.5396821,-3.851248,8.367701
2321,-1.998306,-5.0826545,8.018049
2322,-2.2211375,-4.9842496,7.5460653
2323,-2.9207392,-3.6954155,7.3375907
2324,-2.8606195,-2.1095722,7.603493
2325,-2.2091734,-1.0773684,7.5149584
2326,-1.6941184,-0.9502497,7.5460653
2327,-1.5239289,-2.126621,8.763115
2328,-1.8690935,-3.5997026,8.95484
2329,-3.3780673,-4.256233,9.127123
2330,-4.6836514,-4.3447676,8.885149
2331,-5.256134,-3.4342988,8.044371
2332,-4.7099724,-2.955435,7.6755767
2333,-3.4426737,-2.5959134,7.7760754
2334,-2.8366911,-2.1720848,8.250452
2335,-2.458326,-1.9755741,9.072088
2336,-2.295315,-2.236691,9.287741
2337,-2.6835506,-2.6078775,8.981161
2338,-3.4621153,-2.9578278,8.916255
2339,-4.0441694,-3.1396823,8.573783
2340,-4.592724,-3.2045877,8.839685
2341,-4.851448,-3.293122,9.366704
2342,-5.124529,-3.2907293,9.654142
2343,-5.023731,-3.1950164,9.24467
2344,-5.198706,-2.8689942,8.557033
2345,-5.038088,-2.6102705,8.053942
2346,-4.8155556,-2.4571297,8.499605
2347,-4.8394837,-2.5025933,8.942576
2348,-4.573581,-2.3659034,9.038589
2349,-4.334,-2.0928226,9.275777
2350,-4.4392843,-2.1864417,9.501001
2351,-4.616652,-2.4523442,9.833903
2352,-5.023731,-2.6485555,10.375279
2353,-5.4789658,-2.8785655,10.974083
2354,-5.692226,-3.1683962,11.714362
2355,-5.8357954,-3.2165518,11.707184
2356,-5.8190455,-3.0798619,10.763215
2357,-6.0753765,-2.9793632,10.28166
2358,-6.439684,-2.9865417,10.360922
2359,-6.2934227,-3.2572298,10.459028
2360,-6.1232333,-3.513561,10.789536
2361,-6.1618176,-3.6308093,10.760822
2362,-6.1857457,-3.5973098,10.437492
2363,-6.497112,-3.6068811,10.164412
2364,-6.5018973,-3.6188452,9.680463
2365,-6.207281,-3.716951,9.642178
2366,-5.816653,-3.822534,9.699606
2367,-5.7281184,-3.8608193,9.774082
2368,-5.840581,-3.8584266,9.795618
2369,-5.823831,-3.7914274,9.927223
2370,-5.7281184,-3.633202,9.608679
2371,-5.4837513,-3.5327036,9.44806
2372,-5.0862436,-3.2213376,9.093623
2373,-4.623831,-2.8833513,8.940184
2374,-4.3172503,-2.6991038,8.906684
2375,-3.9744785,-2.5959134,9.040981
2376,-3.912265,-2.7182465,9.093623
2377,-3.9744785,-2.9817562,9.1103735
2378,-4.377071,-3.185445,9.357133
2379,-4.4081774,-3.5446677,8.6192465
2380,-4.4368916,-3.5781672,8.739186
2381,-4.518247,-3.7387853,8.46132
2382,-4.194917,-3.7938204,8.6599245
2383,-4.0513477,-3.7507496,8.676674
2384,-3.9744785,-3.4223347,8.463713
2385,-3.7878382,-2.672783,8.525927
2386,-3.7256248,-2.0880368,8.66471
2387,-3.8404803,-1.8511474,8.640781
2388,-3.7181473,-1.7168503,8.925827
2389,-3.4474592,-1.8583258,8.899506
2390,-3.2249267,-2.1242282,8.72483
2391,-2.8151557,-2.725425,8.8085785
2392,-1.8786649,-3.3792639,8.925827
2393,-1.3875381,-3.9999022,8.990732
2394,-0.69272214,-4.9052863,8.485249
2395,0.39481574,-5.7484574,8.013264
2396,-0.18005991,-6.7833533,7.119844
2397,-3.2488549,-8.393125,5.2130632
2398,-5.1939206,-9.4280205,3.0089746
2399,-6.8395844,-12.98525,4.434499
2400,-8.324929,-15.725631,4.2499523
2401,-7.9366937,-17.778673,0.3786642
2402,-5.0742793,-16.698313,-2.0838494
2403,-5.502894,-19.541883,-4.9776692
2404,-4.552046,-24.50759,-3.0801609
2405,-6.3747787,-31.617561,-6.081957
2406,-5.8477592,-35.720955,-5.1403813
2407,-4.9543395,-33.689445,-3.7558343
2408,-4.556832,-26.905497,-2.606083
2409,-4.0680976,-21.66671,-2.4861426
2410,-2.6668007,-17.958433,-0.29192436
2411,1.1039885,-9.978968,10.30828
2412,3.8443687,-3.4537404,26.628826
2413,4.666004,-2.1242282,21.471096
2414,2.8597221,-6.835995,2.6545377
2415,2.3518455,-7.272087,1.387239
2416,1.3528421,-6.7666035,2.2495525
2417,0.18873389,-6.1244297,2.906083
2418,-12.562618,-6.7426753,39.444485
2419,-9.565608,-4.61067,7.0022964
2420,-5.366503,-3.3122647,-4.1727834
2421,-1.986342,-3.4920256,-6.4220366
2422,-2.3841486,-2.7708886,-8.407781
2423,-1.4617156,-1.3528421,-6.489036
2424,-0.47228336,0.24735804,-4.7955155
2425,0.20309082,1.4141582,-3.269493
2426,-0.07956135,2.2405794,-2.4717858
2427,-0.30000013,2.5351956,-1.6573287
2428,-0.3382853,2.6715865,-1.1183455
2429,-0.36460635,2.3985057,-1.0393823
2430,-0.5395815,2.2094727,-0.7088737
2431,-0.85812604,2.4801607,-0.8237292
2432,-1.7970098,2.1134605,-2.0527427
2433,-1.8523438,2.1687946,-4.9175496
2434,-1.6175481,2.5663023,-7.5693955
2435,-0.34546378,3.0406795,-8.563613
2436,-0.75972116,2.4681966,-6.4220366
2437,-0.73579293,1.6561323,-5.195416
2438,-0.8676973,0.8102696,-3.4564323
2439,-1.0088738,0.4319045,-2.306681
2440,-1.0809577,-0.10229317,-1.0824531
2441,-1.061815,-0.2844468,-0.5602196
2442,-1.0737791,-0.52163535,-0.40438703
2443,-1.0232308,-0.6628119,-0.37806597
2444,-1.0088738,-0.78753775,-0.62961143
2445,-0.70229346,-0.78035927,-0.8021938
2446,-0.73818576,-0.6867401,-0.9457632
2447,-0.38614175,-0.37058842,-0.8644072
2448,-0.07238288,-0.0017946169,-0.6200402
2449,0.10737792,0.005383851,-0.27756742
2450,0.11934203,-0.27966115,0.26859435
2451,-7.7763743,-7.245766,54.79504
2452,-9.695119,-11.983854,-3.3607194
2453,-1.9624137,-11.200503,-10.918449
2454,0.4833502,-9.870992,-9.974482
2455,-0.41006997,-13.6968155,6.8659053
2456,-3.2536407,-32.927933,30.04458
2457,-0.90119684,-47.38716,39.873398
2458,-27.438498,-77.59445,19.878075
2459,-14.646467,-59.441303,-6.1561346
2460,-8.89502,-29.842386,-3.05384
2461,-5.838188,-13.483556,-1.2861422
2462,-5.9653068,-7.135397,0.53210396
2463,-5.840581,-3.7674992,-4.4315076
2464,-3.790231,-0.8234301,-5.0709896
2465,-1.7635103,1.3854443,-2.6371896
2466,1.0319048,2.676372,1.617249
2467,1.0992029,4.432405,0.07208378
2468,0.6678966,4.82752,1.3896317
2469,0.72053874,5.9177494,6.415457
2470,1.0127622,6.600302,7.0788665
2471,3.4657044,6.686444,2.771786
2472,5.233701,2.3027928,4.5541396
2473,4.011866,-5.6072807,9.948758
2474,0.2653042,-10.386046,10.394422
2475,-2.1828525,-11.25823,11.711969
2476,-3.263212,-10.482059,13.963615
2477,-3.7328033,-9.916755,17.647964
2478,-4.144668,-10.954043,20.786152
2479,-5.3425746,-12.314662,17.64557
2480,-5.0333023,-10.944173,7.8263245
2481,-5.361717,-7.5978103,5.076373
2482,-7.2302127,-1.096511,5.1122656
2483,-6.456434,5.297111,3.9840498
2484,-3.9601214,1.5529419,7.615457
2485,-2.5851457,-1.5634105,10.135697
2486,-0.9945169,-3.2500513,10.959726
2487,-0.10109676,-3.9780676,11.187344
2488,-0.32153556,-3.8943188,9.903295
2489,-1.2556337,-3.077469,9.223135
2490,-2.5181468,-2.0928226,9.249456
2491,-5.7257257,-1.1036894,9.960723
2492,-6.710372,-1.1443675,9.615857
2493,-6.2455664,-1.6450655,9.005089
2494,-5.5746784,-1.4461622,8.06112
2495,-4.7506504,-1.7359928,7.5939217
2496,-3.330211,-1.7527425,7.9773717
2497,-3.2033913,-1.6570296,8.391629
2498,-3.1169505,-1.3911272,8.9521475
2499,-3.5243287,-1.434198,9.747462
2500,-3.9816568,-1.5251254,9.675677
