,ax,ay,az
501,-0.8700901,1.7805592,-1.0130613
502,-0.9418748,1.7111673,-0.9915259
503,-1.076172,0.9804591,-0.95802635
504,-0.9059825,0.9637093,-1.57358
505,-1.11685,0.927817,-2.6228328
506,-0.965803,1.2966107,-3.188137
507,-0.6161518,1.8164514,-3.8156548
508,-0.26650062,2.2669003,-4.886443
509,0.008973085,2.4705894,-5.406284
510,0.3397808,2.4442682,-4.3666024
511,0.59611195,2.096711,-2.6276183
512,-0.23988047,1.2607185,-1.4488541
513,-0.77677006,0.7959126,-0.8787641
514,-0.92512506,0.52283174,-0.56500524
515,-0.8676973,0.32422748,-0.4621139
516,-0.84137625,0.058325052,-0.4884349
517,-0.82701933,-0.1788635,-0.77587277
518,-0.85094756,-0.4543372,-1.2358929
519,-0.831805,-0.72023964,-1.6214365
520,-0.8533404,-0.9765707,-1.9830518
521,-0.8102696,-1.0630114,-1.9806589
522,-0.5395815,-0.878465,-1.0992029
523,-0.62093747,-0.9382856,-0.5195416
524,-0.86530447,-1.1491531,-0.7686943
525,-6.9499536,-4.546064,40.52963
526,-11.501401,-12.204293,10.569397
527,-10.11177,-13.473985,-11.370993
528,-2.800799,-12.18515,-9.064311
529,-6.017949,-33.299118,34.253555
530,-3.8931224,-76.40612,54.356556
531,-1.68694,-77.65906,32.95515
532,0.12412767,-53.10511,-13.10549
533,-0.8437691,-25.841887,-14.715261
534,-9.920343,-14.743676,-6.4052873
535,-13.111173,-9.042177,-0.33260235
536,-13.103994,-5.015356,5.2920265
537,-8.708079,-0.5168497,-0.9457632
538,-5.9342003,1.2200404,-8.36471
539,-4.499105,2.7508488,-5.7873406
540,-1.9360926,4.154538,2.44367
541,-0.06281159,3.99392,14.445171
542,-1.0304092,3.344867,17.343777
543,-0.75254273,2.7436702,23.442783
544,1.3842479,-2.6102705,17.180765
545,2.3422742,-6.9822564,12.042479
546,7.437491,-12.491731,7.8023963
547,5.425426,-12.513266,6.348458
548,-3.370889,-7.4563346,10.8352995
549,-9.323633,-2.8761728,13.0773735
550,-4.7171507,8.610273,6.0777693
551,-1.9815563,6.41097,7.203593
552,-0.8102696,-0.111864455,9.845867
553,-1.2723835,-2.2534406,11.489138
554,-2.7481568,-3.281158,11.874681
555,-5.15085,-4.2463627,11.903694
556,-7.21107,-4.6872406,11.910872
557,-8.092526,-3.8464625,10.506885
558,-6.7223363,-1.977967,8.971589
559,-5.368896,-0.5021936,8.082656
560,-4.7769713,0.6619146,8.78465
561,-4.2068815,1.0546366,9.991829
562,-4.3172503,-0.3059822,10.746466
563,-4.5855455,-1.0725827,10.885549
564,-5.5579286,-1.666601,11.158629
565,-6.2790656,-1.4868401,10.842478
566,-6.875477,-0.8665009,10.451849
567,-7.2062845,-0.41605204,10.221839
568,-6.9499536,-0.26291138,10.008579
569,-6.571289,-0.31076783,9.649357
570,-6.216852,-0.15732808,9.795618
571,-5.8911295,-0.23389842,10.521241
572,-5.79751,-0.41605204,11.223235
573,-5.922236,-0.53359944,11.335698
574,-6.2718873,-0.5623133,11.345269
575,-6.2718873,-0.4351946,11.266306
576,-6.029913,-0.44715872,10.897512
577,-5.977271,-0.5982057,10.3848505
578,-6.0753765,-0.7609176,10.468599
579,-6.4157557,-1.1515459,10.986047
580,-6.6768723,-1.4246268,10.6770735
581,-6.6744795,-1.4413766,10.403993
582,-6.6478596,-1.4413766,10.252946
583,-6.38435,-1.3911272,10.025628
584,-6.221638,-1.5681962,10.142876
585,-6.068198,-1.6426728,9.891331
586,-6.06102,-1.7503498,9.623035
587,-6.0634127,-1.9396819,9.603892
588,-5.9150577,-2.2582264,9.361918
589,-5.5507503,-2.5983062,9.01466
590,-5.2369914,-2.87378,9.189336
591,-5.280062,-3.1348968,9.438489
592,-4.9375896,-3.1420753,10.4016
593,-4.9136615,-3.3385859,9.100801
594,-4.6788654,-3.065505,9.776475
595,-4.7626143,-2.4499512,10.634003
596,-4.6381874,-2.179263,10.784751
597,-4.1494536,-0.7851449,10.003794
598,-4.0585265,-0.57188463,9.999007
599,-3.8907297,-0.62931234,10.432707
600,-4.025027,-1.1371889,9.515358
601,-3.9074793,-1.9731814,10.01815
602,-3.735196,-3.0415766,9.532108
603,-3.4043884,-4.1554356,8.382058
604,-2.7003005,-5.19751,7.033403
605,-3.1049864,-6.632306,7.481459
606,-3.5673995,-8.539386,6.669395
607,-4.4967117,-10.881959,4.681258
608,-5.8863435,-12.750455,-0.12412767
609,-3.330211,-12.590136,-4.0552363
610,-1.2891332,-13.747066,-6.4866433
611,1.2571292,-17.146368,-6.474679
612,-2.6739793,-21.014965,-6.410073
613,-3.030809,-29.593233,-5.2316074
614,-3.5769708,-37.677982,-6.172884
615,-8.267202,-39.247078,-6.2518473
616,-6.8946195,-34.18297,-4.886443
617,-4.647759,-26.421547,-3.159423
618,-1.7994026,-17.761923,-1.2957134
619,-0.8605189,-13.5481615,-0.45732823
620,2.1050856,-4.471587,21.056839
621,2.0620148,0.29790643,35.77958
622,-2.8390841,-6.646663,9.936794
623,-3.979264,-7.224231,1.9453648
624,-7.199106,-6.4241304,4.278666
625,-10.718051,-5.4227343,9.072088
626,-10.698908,-4.39741,5.512465
627,-7.8577304,-2.5671997,1.6196418
628,-4.7674,-0.8665009,-4.8003016
629,-1.7060826,0.032004002,-5.415855
630,-0.5922236,0.3696911,-4.069593
631,-0.41724846,0.63559353,-3.5114672
632,-0.07716853,1.2990036,-3.025126
633,0.552742,1.579263,-2.2274187
634,0.552742,2.1951156,-1.4898312
635,0.41635114,2.3865414,-0.9699905
636,0.5288138,2.3003998,-0.7256235
637,0.59611195,2.365006,-0.8237292
638,0.38763726,2.4008985,-1.0968101
639,0.25573292,2.556731,-1.6238292
640,0.15284155,2.5710878,-3.3556347
641,0.40677986,2.0727825,-4.723731
642,1.5254245,2.3913271,-7.6797643
643,1.8607187,1.7566309,-9.960124
644,0.5288138,0.180359,-7.6340017
645,-0.8389834,0.09900304,-5.6817575
646,-0.9849456,-0.1788635,-3.5712879
647,-0.2952145,-0.23389842,-1.7315062
648,-0.3047858,-0.41605204,-1.7557336
649,-0.6305088,-0.66759753,-1.5568303
650,-0.6305088,-0.66759753,-1.5568303
651,-0.8389834,-0.878465,-1.3459628
652,-1.2699906,-1.2855439,-1.6022938
653,-1.4210376,-1.5323038,-1.6357933
654,-1.4306089,-1.6115661,-1.422533
655,-0.84137625,-1.2903296,-0.8428718
656,-0.19680966,-0.8545368,-0.3804588
657,0.13369897,-0.60777694,-0.052342996
658,0.25573292,-0.55034924,1.2675978
659,-2.4032912,-8.59442,68.96922
660,-7.443174,-19.754845,60.41967
661,-12.553046,-24.95325,-14.209777
662,2.3781667,-20.531017,-35.316566
663,8.630612,-14.932709,-27.380173
664,-1.0809577,-19.014864,7.450352
665,-5.1867423,-35.407196,35.3722
666,-5.7376895,-41.518166,-10.379466
667,-6.125626,-40.20301,12.114263
668,-7.6588273,-37.72135,40.594536
669,-13.793725,-32.436806,12.097513
670,-0.6161518,-19.934605,-13.476676
671,-0.5922236,-15.035899,-4.1126637
672,-8.209774,-9.255438,5.8190455
673,-6.571289,-5.1352963,2.9587252
674,-4.267001,-2.2151556,3.5240295
675,-1.2532408,0.7959126,7.0549383
676,-0.35503507,2.4296124,8.293523
677,1.3313067,5.0072803,8.87797
678,2.8022945,5.148756,8.930613
679,4.84068,3.1028929,9.2590275
680,4.1054854,-2.778067,9.352347
681,2.0907288,-6.9822564,11.088939
682,-2.3455644,-10.029217,11.862718
683,-3.9338005,-8.98475,10.720144
684,-2.5923243,-3.9086757,7.9917283
685,-1.9289142,1.1410773,7.622935
686,-5.2872405,1.4859428,10.588539
687,-6.7845497,0.32662028,9.613464
688,-6.5234327,-0.41605204,9.999007
689,-6.2718873,-2.672783,11.599208
690,-5.6946187,-3.7507496,11.388639
691,-5.3449674,-4.1291146,10.890334
692,-4.0034914,-3.5757744,10.868798
693,-3.653541,-2.902494,11.436496
694,-3.3278182,-1.6761723,10.535598
695,-3.739982,-1.0339985,10.497313
696,-4.820341,-0.2219343,11.534601
697,-5.4000025,-0.5886344,11.778969
698,-5.189135,-1.2209377,11.254342
699,-5.447859,-1.6187445,11.170593
700,-5.9916277,-1.9325033,11.014761
701,-6.4013987,-2.0353947,10.693824
702,-6.6888366,-2.1457636,10.93819
703,-6.530611,-2.3491535,11.345269
704,-6.06102,-2.1481566,10.883156
705,-5.79751,-1.5777674,10.815858
706,-5.8334026,-1.0917253,10.933405
707,-5.7400823,-0.84735835,10.77518
708,-5.651548,-0.83778703,10.669895
709,-5.708976,-1.0100702,10.521241
710,-5.718547,-1.2520444,10.629217
711,-5.658726,-1.4772689,10.729716
712,-5.6324053,-1.4006985,10.506885
713,-5.5244293,-1.3863416,10.765608
714,-5.2776694,-1.2975081,10.712966
715,-4.88734,-1.2400804,10.480563
716,-4.484748,-1.2376875,10.301102
717,-4.458427,-1.2999009,10.408778
718,-4.3555355,-1.6331015,10.392029
719,-4.3986063,-2.0760727,10.49492
720,-4.5158544,-2.4690938,10.296316
721,-4.2044883,-2.8809586,10.399207
722,-4.0441694,-3.266801,10.885549
723,-4.1590247,-3.5207393,10.940583
724,-4.0968113,-3.3840494,11.177772
725,-4.022634,-2.9338996,10.931012
726,-4.3124647,-2.196013,9.637392
727,-4.132704,-1.0845468,9.428918
728,-4.0585265,-0.49980083,9.88176
729,-4.1111684,-0.7298109,10.090234
730,-3.505186,-1.3648062,9.6015
731,-2.7696922,-2.289333,9.093623
732,-2.408077,-3.4680972,8.973982
733,-2.1158533,-4.028616,9.055338
734,-2.0964117,-4.816752,8.810971
735,-2.4822545,-5.645566,9.242277
736,-3.3278182,-7.2122664,7.9917283
737,-4.039384,-8.747561,6.5904317
738,-4.738686,-10.228121,6.113662
739,-5.730511,-12.211472,4.494319
740,-6.6071815,-13.193725,2.1275184
741,-6.815656,-15.898212,-0.6152545
742,-4.7362933,-18.617058,-2.1867409
743,-3.8261235,-19.704596,-3.257529
744,-0.4124628,-20.140688,-1.0992029
745,-1.605584,-27.049364,-2.1891336
746,-3.5147574,-31.950464,-4.5942197
747,-5.4981084,-32.15176,-5.212166
748,-4.034598,-27.27459,-4.364209
749,-3.0523443,-23.350658,-2.821736
750,-1.3995022,-17.699709,0.37387854
751,-0.38853458,-12.752848,6.13759
752,-1.1383854,-7.6959157,18.402601
753,-2.8989046,-2.2821546,33.13252
754,-3.4597225,-2.478665,16.59632
755,-5.5722857,-5.662316,-0.59611195
756,-5.9557357,-5.8226347,-7.670193
757,-3.6032917,-4.0764723,-1.3674982
758,-5.2441697,-2.5313072,8.799007
759,-5.3306108,-1.0486546,7.4886374
760,-4.130311,-0.19800608,2.283351
761,-1.9097716,-0.19561325,-2.3449662
762,-0.33589247,0.055932228,-3.4923246
763,0.13369897,0.465404,-3.746263
764,-0.19920248,0.86560357,-3.5234313
765,-0.23988047,1.294218,-1.9064814
766,0.008973085,1.4811572,-1.2311072
767,-0.14177474,1.8547367,-0.7495517
768,-0.71425754,1.7590238,-0.3182454
769,-0.4746762,1.6295122,-0.4334
770,-0.7645068,1.3782659,-0.6128617
771,-0.7692925,1.2655041,-0.61764735
772,-0.7286145,1.3325031,-1.3076776
773,-0.7477571,1.3950156,-2.1604197
774,-0.6257231,1.6295122,-3.8778682
775,-0.3789633,2.012962,-5.0183473
776,0.6343971,2.094318,-4.898407
777,1.4273187,1.9674984,-4.364209
778,0.6726823,1.1171491,-3.6143587
779,0.6200402,0.78634137,-2.85045
780,0.30388847,0.44147578,-1.8299111
781,0.06430711,0.32183465,-1.137488
782,-0.04127619,0.23778675,-0.8883354
783,-0.07477571,0.11096715,-0.8285148
784,-0.053240303,-0.018544376,-0.85483587
785,0.0041874396,-0.23868406,-0.9508479
786,0.18873389,-0.27726832,-1.2454642
787,0.38524446,-0.32033914,-1.4874383
788,0.50488555,-0.49980083,-1.721935
789,0.5072784,-0.49022955,-1.518545
790,0.35413775,-0.60059845,-1.1470593
791,0.17198412,-0.8856435,-1.2167503
792,-0.024526432,-1.000499,-1.0680962
793,-8.003992,-6.565307,6.561718
794,-0.16570297,-5.0994043,-15.086448
795,0.7396813,-4.9435716,-7.4856467
796,-10.981561,-20.073689,12.171989
797,-45.66343,-77.65906,78.158264
798,-59.05905,-77.65906,43.471306
799,-1.7324036,-54.640705,-19.391136
800,7.1476603,-23.956642,-42.704407
801,8.251948,-16.008282,-31.08127
802,5.111667,-9.080762,-9.387642
803,0.92183495,-2.3925235,9.929616
804,-2.9709885,2.7412775,16.60589
805,-0.18005991,2.475375,-0.99631155
806,-0.10827523,2.5375884,-4.1174498
807,2.2800608,2.786741,-5.849554
808,1.6669,2.635694,-4.2780676
809,3.1040893,5.1006007,9.560822
810,5.3150573,8.150253,38.72604
811,2.3231318,5.6877394,21.20998
812,6.606284,-0.6029913,11.453245
813,2.9796624,-10.54188,-0.77347994
814,3.226123,-12.606885,5.756832
815,-6.463612,-12.443874,12.935899
816,-8.228917,-6.2922263,12.037692
817,-4.6932225,6.602695,5.052445
818,-3.641577,6.65773,5.323133
819,-2.6282165,0.014955142,8.969196
820,-3.1169505,-3.9254255,10.406385
821,-3.804588,-5.6814585,10.075877
822,-4.3172503,-5.6527443,10.657931
823,-5.050052,-5.499305,11.033903
824,-6.533004,-4.421338,9.915258
825,-5.4574304,-2.7158537,8.624032
826,-3.0690942,-1.3360924,8.688937
827,-1.3755739,-0.5814559,9.826724
828,-1.34686,-0.96460664,10.454242
829,-2.4702902,-2.140978,11.357234
830,-4.0010986,-2.713461,11.266306
831,-5.11735,-2.656033,11.671291
832,-5.938986,-1.7670995,11.06501
833,-5.8839507,-0.72263247,10.506885
834,-6.017949,0.02961118,10.229017
835,-5.8767724,-0.23389842,10.377672
836,-5.2680984,-1.0869397,10.365707
837,-5.313562,-1.7575282,11.055439
838,-5.433502,-1.937289,11.03151
839,-5.6874404,-1.7647067,11.101202
840,-6.0514483,-1.6642082,11.640184
841,-6.2120667,-1.5514464,11.709577
842,-6.2264237,-1.4365909,11.709577
843,-6.207281,-1.3671991,11.66172
844,-6.18096,-1.3911272,11.216057
845,-6.195317,-1.474876,11.244771
846,-6.0658054,-1.5131612,11.309377
847,-5.8022957,-1.3241283,10.811071
848,-5.807081,-1.5442679,10.942976
849,-5.864808,-1.910968,11.122737
850,-5.785546,-2.1625135,10.966905
851,-5.7544394,-2.4212375,11.141879
852,-5.773582,-2.4475584,10.902298
853,-5.8429737,-2.466701,10.852049
854,-5.7376895,-2.30369,10.0014
855,-5.4143596,-2.3754747,10.288838
856,-4.88734,-2.737389,9.829117
857,-4.712365,-3.3170505,9.568001
858,-4.6501517,-4.1889353,10.396814
859,-4.302893,-4.775775,10.8352995
860,-3.8069808,-5.073083,10.26491
861,-4.1279182,-4.553242,9.943973
862,-4.0441694,-3.44387,11.081759
863,-3.9673,-2.3802602,11.244771
864,-3.5554354,-1.6689938,9.886545
865,-3.0978081,-1.1730813,9.548858
866,-3.1313076,-1.2161521,9.333204
867,-3.0260234,-1.707279,9.670892
868,-3.0020952,-2.6246274,10.5741825
869,-2.5492535,-3.7244284,8.224132
870,-1.7802601,-5.382056,8.391629
871,-1.3779668,-7.9187474,8.065906
872,-2.2235305,-9.315259,7.117451
873,-3.3206396,-10.290334,5.1266227
874,-3.4956148,-11.938391,-0.0738784
875,-2.2259233,-11.493027,-2.2633111
876,-1.5669997,-11.672488,-5.645865
877,-1.3707882,-13.634603,-6.381359
878,-2.079662,-15.239589,-6.16092
879,-3.0523443,-24.842882,-5.6147585
880,-2.8749764,-37.031322,-6.582655
881,-4.9734817,-40.121655,-6.1968126
882,-8.72483,-34.470406,-4.625326
883,-6.013163,-24.751955,-2.498107
884,-2.623431,-16.54248,-0.98913306
885,-1.0642079,-12.290733,0.17288144
886,3.8347974,-1.9995024,26.19752
887,-0.63529444,-3.5111682,23.11676
888,-5.5052867,-6.555736,15.364912
889,-9.625728,-6.460023,14.114662
890,-12.797114,-6.6708903,15.101403
891,-11.92523,-6.2491555,0.14416756
892,-7.632506,-5.9473605,-6.3215384
893,-1.698904,-2.778067,-7.62443
894,-0.048454657,-1.5323038,-5.011169
895,0.40677986,-0.48065826,-3.964309
896,0.7851449,0.48933223,-3.8108692
897,0.38524446,1.0139586,-3.5449667
898,0.16241284,1.3998013,-3.6266217
899,0.102592275,1.7877376,-3.1307094
900,0.01375873,2.0775683,-2.577369
901,0.08584251,2.3602204,-1.925624
902,0.4953143,2.53041,-1.6740786
903,-0.02213361,2.693122,-1.939981
904,-0.18005991,2.7963123,-2.5459633
905,-0.66400826,2.7269206,-5.3967123
906,1.4751751,3.8120656,-9.553045
907,3.5473595,4.1401815,-11.169995
908,1.2762718,2.3602204,-8.963513
909,0.5697909,1.8116659,-3.9595232
910,-0.6687939,1.375873,-1.5113666
911,-1.4090735,0.6978069,-0.7256235
912,-1.5478572,0.3481557,-0.2847459
913,-1.442573,0.20668006,-0.33738798
914,-1.4042878,0.032004002,-0.15074782
915,-1.4138591,-0.2219343,-0.25603202
916,-1.3660027,-0.4758726,-0.67028946
917,-1.1312069,-0.6652047,-0.7112665
918,-0.8605189,-0.7369894,-0.7615158
919,-0.75254273,-0.76331043,-0.49322057
920,-0.7286145,-0.7465607,0.05054838
921,-0.5347959,-0.63888365,0.48185465
922,0.57457656,-1.8101703,37.980976
923,-3.5171502,-8.64467,64.83443
924,-13.52543,-19.386051,12.006586
925,-12.679866,-17.05275,-21.456142
926,-0.40289152,-11.835499,-19.659431
927,6.6708903,-8.376375,-18.624834
928,0.61046886,-10.654342,-7.713264
929,-15.753148,-34.506596,59.86633
930,-16.99891,-73.62745,58.31877
931,-18.920048,-77.65906,10.739287
932,-1.7252251,-44.378185,-20.900408
933,-3.4740794,-23.237898,-18.512072
934,-2.408077,-11.92164,-9.198309
935,-4.7626143,-4.3375893,5.0979085
936,-7.8026958,0.11096715,12.212667
937,-5.7616177,1.0594223,5.715855
938,-3.859623,1.3277174,-1.0322039
939,-1.8257236,1.591227,-2.0165513
940,0.34217364,2.3243282,2.4388845
941,0.7636095,4.211966,9.148658
942,0.84765744,6.1067824,14.555241
943,3.757928,7.1632137,13.839189
944,5.6264234,3.682554,9.1414795
945,4.668397,-4.4668016,11.474781
946,3.5784662,-10.409975,11.884253
947,-0.7477571,-10.707283,11.738291
948,-2.7672994,-6.308976,10.890334
949,-1.9743778,-2.5384858,8.2145605
950,-2.4272194,0.0029910284,6.8467627
951,-3.4836507,0.33379877,8.468498
952,-5.5483575,-1.692922,10.902298
953,-7.0408807,-3.839284,10.727323
954,-6.8946195,-4.6154556,10.904691
955,-6.18096,-4.289733,10.526027
956,-4.6932225,-3.4800615,10.360922
957,-2.312065,-2.2390838,9.558429
958,-2.065305,-1.1730813,10.437492
959,-1.6127625,-0.29641092,11.410174
960,-2.2522442,-0.20518455,10.732109
961,-3.2703903,0.07986046,10.811071
962,-4.607081,-0.5021936,11.501102
963,-5.749654,-0.7752745,11.75504
964,-5.1939206,-0.98614204,11.287842
965,-5.1197433,-1.0989038,11.242378
966,-5.296812,-1.0124631,10.41835
967,-5.742475,-0.64606214,9.920045
968,-6.128019,-0.63170516,9.987043
969,-6.396613,-0.8808578,10.01815
970,-6.209674,-0.9957133,10.530812
971,-5.8887367,-1.3839488,11.834003
972,-5.682655,-1.7048861,11.436496
973,-5.675476,-1.6019948,11.069796
974,-5.658726,-1.585245,10.959726
975,-5.4670014,-1.5948163,10.998011
976,-5.3330035,-1.6570296,11.009975
977,-5.3306108,-1.9468603,11.189736
978,-5.388038,-2.05693,10.981261
979,-5.517251,-1.9875383,10.698609
980,-5.500501,-2.097608,10.8664055
981,-5.181957,-2.1984057,11.244771
982,-4.621438,-2.3539393,11.1682005
983,-4.374678,-2.4643083,10.454242
984,-4.4201417,-2.4858437,10.679466
985,-4.1183467,-2.5504498,10.325029
986,-3.8955152,-3.0822546,10.811071
987,-3.4474592,-3.5470605,10.291231
988,-3.1432717,-3.743571,10.0014
989,-3.0619156,-3.7555351,9.762118
990,-2.9542387,-3.6140594,10.056734
991,-3.1097722,-3.2093735,10.252946
992,-3.409174,-2.0928226,11.055439
993,-3.6343985,-1.3767704,11.347662
994,-3.4860435,-1.2807583,10.98844
995,-3.505186,-1.4772689,9.730712
996,-3.0140593,-1.8053846,9.129516
997,-2.7601209,-2.2103698,8.8492565
998,-2.376671,-3.0702906,8.911469
999,-2.3479571,-3.7962132,9.577572
1000,-2.7218359,-5.549554,9.762118
1001,-3.952943,-8.3835535,9.661321
1002,-4.942375,-10.89153,8.58814
1003,-5.747261,-11.849856,6.2213387
1004,-5.8190455,-12.134901,2.4532413
1005,-4.240381,-11.734701,-1.6573287
1006,-2.949453,-11.502598,-2.7831519
1007,-0.6735796,-14.254942,-2.0838494
1008,-5.0548377,-17.071892,-4.968098
1009,-5.083851,-23.697918,-5.0829535
1010,-6.8611197,-34.470406,-7.5215387
1011,-7.071987,-39.80281,-8.084451
1012,-6.1160545,-34.5712,-6.278168
1013,-5.042874,-28.84817,-4.287639
1014,-2.9422746,-21.381367,-2.510071
1015,0.16959131,-13.8021,2.2064817
1016,6.9009004,-0.94307125,50.66742
1017,4.0334015,-5.0994043,20.615961
1018,1.8224336,-8.987143,5.2130632
1019,0.32303107,-7.7440715,3.8931224
1020,-10.859227,-5.386842,35.111084
1021,-12.330215,-5.046463,19.89004
1022,-13.602,-5.063512,-0.0212363
1023,-8.370393,-4.316054,-5.6482577
1024,-6.6358953,-3.9230328,-9.689436
1025,-2.1158533,-2.0210378,-6.7094746
1026,0.53359944,0.18514465,-4.304389
1027,1.285843,1.2463615,-2.3425734
1028,0.9912268,1.5026926,-1.5927225
1029,0.3397808,1.8738792,-1.9375881
1030,0.66071814,2.0081763,-2.3138595
1031,0.7325028,2.1589243,-2.3712873
1032,0.4331009,2.0225334,-2.2704897
1033,0.84765744,2.3171496,-1.9854445
1034,1.2044871,2.626123,-1.4321043
1035,1.1829517,2.6476583,-1.4321043
1036,1.0271192,2.7101707,-2.4526432
1037,0.90508515,2.5782664,-5.7391853
1038,2.059622,2.6907291,-7.936095
1039,3.4561331,3.19382,-9.857233
1040,2.0620148,1.4356936,-9.023633
1041,1.259522,0.99960166,-5.3775697
1042,-0.29282168,0.47976094,-2.838486
1043,-1.3229318,-0.0065802624,-2.1604197
1044,-1.6414764,-0.2748755,-1.5879369
1045,-1.6845472,-0.3394817,-1.3794622
1046,-1.6390835,-0.44715872,-1.192523
1047,-1.6223338,-0.5814559,-0.933799
1048,-1.5960127,-0.6556334,-0.9385847
1049,-1.7587247,-0.92153585,-0.87158567
1050,-1.9193429,-0.97178507,-0.6678966
1051,-1.864308,-0.919143,-0.37567315
1052,-1.2269198,-0.41605204,0.1896312
1053,-0.76689965,-0.10707881,0.44117668
1054,-0.6305088,0.03678965,0.86979103
1055,-0.098703936,-2.5169504,45.876392
1056,-4.3316073,-6.936793,36.677784
1057,-5.4646087,-10.086645,2.961118
1058,-2.8319056,-8.912965,-15.56561
1059,3.0299118,-8.1344,-18.095423
1060,2.7185457,-7.2122664,-18.001802
1061,3.5473595,-6.308976,-5.027919
1062,-13.683656,-35.047974,53.73382
1063,-33.87519,-77.40752,77.22417
1064,-29.889048,-77.65906,-34.744083
1065,-0.6664011,-41.491844,-28.657042
1066,3.214159,-19.23261,-23.03002
1067,3.1280174,-10.419846,-19.805693
1068,0.55034924,-3.5733814,-10.458429
1069,-0.58983076,3.2515469,6.5832534
1070,-0.4531408,6.1860447,19.066011
1071,-0.7046863,5.014459,14.41885
1072,-0.8365906,2.7771697,2.312065
1073,-2.1421745,2.4993033,-2.3832514
1074,-1.6151553,4.59063,3.8114674
1075,0.57457656,8.600702,19.193129
1076,3.144767,8.444869,10.444671
1077,2.0428724,2.0895324,6.06102
1078,5.13081,-4.8358946,16.378273
1079,2.0548365,-7.1712894,14.387743
1080,-1.483251,-1.9995024,10.003794
1081,0.16241284,1.7279171,4.0103707
1082,1.1829517,0.42711884,5.44756
1083,-0.8533404,-1.5083755,8.444571
1084,-3.9553359,-2.696711,9.210872
1085,-6.1184473,-3.918247,9.426525
1086,-7.234998,-4.749454,10.588539
1087,-7.1270223,-4.1434717,10.883156
1088,-6.8204417,-3.4271202,9.948758
1089,-5.9030933,-2.6895328,10.193126
1090,-5.2082777,-2.3012972,11.529816
1091,-2.757728,-3.0726833,12.353845
1092,-1.8161523,-3.065505,12.092728
1093,-2.1804597,-3.0391839,10.964512
1094,-3.2273195,-2.0162523,10.933405
1095,-3.9816568,-1.6953149,11.565708
1096,-4.8729835,-1.9325033,11.970694
1097,-6.317351,-2.1864417,11.941979
1098,-7.1389866,-2.0784655,10.959726
1099,-7.333104,-2.184049,10.18834
1100,-7.793124,-1.8340986,9.326026
1101,-7.713862,-1.8678972,10.133305
1102,-7.450352,-2.370689,11.103595
1103,-7.062416,-2.5648067,11.589637
1104,-6.8204417,-2.5671997,11.680862
1105,-6.41097,-2.2295125,11.014761
1106,-6.0394845,-2.114358,11.254342
1107,-5.7281184,-1.9755741,11.067403
1108,-5.328218,-1.7718852,10.837692
1109,-5.198706,-1.8798612,11.156237
1110,-5.098208,-2.0712872,11.115559
1111,-4.9974103,-2.2438695,11.115559
1112,-4.930411,-2.2055843,10.655539
1113,-5.011767,-2.0210378,10.562219
1114,-4.820341,-1.9492532,10.518848
1115,-4.8658047,-2.085644,11.141879
1116,-4.714758,-2.370689,10.794322
1117,-4.633402,-2.4092734,9.876974
1118,-4.575974,-2.8953154,9.663713
1119,-4.2837505,-3.6116667,9.65175
1120,-3.9218364,-4.0477586,10.181161
1121,-3.437888,-4.1721854,9.266206
1122,-3.2847474,-4.119543,8.564211
1123,-2.94706,-3.7627137,9.223135
1124,-2.594717,-3.158825,8.72483
1125,-3.0978081,-2.385345,9.227921
1126,-3.7710886,-1.7359928,10.008579
1127,-3.6320057,-1.4389837,10.549955
1128,-2.9949167,-1.7312071,11.149058
1129,-2.693122,-2.1625135,10.643574
1130,-2.1732812,-3.0343983,8.552247
1131,-1.931307,-4.0740795,8.669496
1132,-2.1011975,-5.6096735,8.815757
1133,-2.4966114,-6.0550375,6.8778696
1134,-3.4283166,-7.478169,7.2825556
1135,-4.235595,-8.536694,3.0762727
1136,-4.944768,-9.602696,-0.18903299
1137,-3.9290147,-10.036395,-3.1043882
1138,-2.6425736,-11.835499,-6.2733827
1139,-0.6664011,-14.918352,-6.9394846
1140,-5.038088,-22.964817,-6.71426
1141,-6.7845497,-46.172504,-11.146067
1142,-8.590832,-56.063534,-9.85484
1143,-8.399107,-45.02036,-7.3011003
1144,-7.2397842,-36.446877,-6.000302
1145,-3.3613176,-22.904995,-2.6252255
1146,-2.0437696,-16.856539,-1.3196417
1147,-0.16570297,-11.533704,1.9884356
1148,6.5536423,2.2740788,34.267914
1149,3.714857,-0.33230326,20.718853
1150,0.70378894,-3.8177485,10.909476
1151,-2.0150557,-5.0922256,7.268199
1152,-7.24457,-4.4117665,17.355742
1153,-11.0557375,-3.8344984,16.275381
1154,-10.289138,-3.7555351,8.128119
1155,-10.684551,-3.8608193,3.598207
1156,-11.767303,-4.584349,-0.49322057
1157,-6.52104,-2.4451656,-4.1126637
1158,-0.8102696,-0.5910272,-8.719446
1159,1.2954143,-0.020937199,-8.105986
1160,1.1590235,0.44865423,-5.918946
1161,0.9696914,0.82971126,-4.833801
1162,1.233201,1.6728821,-2.7616165
1163,1.3025929,2.0297117,-2.3186452
1164,1.3025929,2.0297117,-2.3186452
1165,0.58654064,2.1254246,-4.165605
1166,0.74207413,2.1711874,-4.2038903
1167,1.178166,2.3315065,-4.1775694
1168,1.9375881,2.6404798,-4.9103713
1169,2.629712,2.8848467,-6.532107
1170,2.9004002,2.9135606,-5.562116
1171,3.0107691,2.6548367,-4.2661037
1172,2.018944,1.7494525,-3.135495
1173,0.98644114,1.1745768,-2.1388843
1174,-0.2015953,0.3912265,-0.8500503
1175,-0.58983076,0.32662028,-0.37328035
1176,-0.721436,0.3290131,-0.49800622
1177,-0.97537434,0.2832504,-0.90508515
1178,-1.3082758,0.034396827,-1.6836498
1179,-1.4138591,-0.12622139,-1.9184456
1180,-1.3420744,-0.35623148,-2.0958135
1181,-1.1718849,-0.4351946,-1.8562322
1182,-1.0136595,-0.46630132,-1.6884354
1183,-0.965803,-0.49980083,-1.2933207
1184,-1.0328021,-0.6795616,-1.0489537
1185,-1.1192428,-0.8330014,-0.7088737
1186,-1.0256236,-0.878465,-0.25124636
1187,-0.7477571,-0.25573292,15.377175
1188,-6.710372,-4.109972,45.256054
1189,-17.348562,-9.499805,17.830118
1190,-13.408182,-10.204192,-8.441579
1191,1.7793628,-6.987042,-22.28017
1192,1.2571292,-6.10768,-12.856337
1193,0.4642076,-21.585054,20.577677
1194,8.95155,-67.396545,76.54849
1195,-21.617357,-77.65906,23.56721
1196,-26.192734,-77.65906,-24.955944
1197,-8.547761,-30.915567,-26.175386
1198,-4.458427,-16.094723,-20.615364
1199,-2.96381,-4.5891347,-5.049454
1200,-4.631009,1.2846466,8.832506
1201,-4.1111684,4.79402,10.744073
1202,-2.513361,4.556832,6.178268
1203,-2.6979074,4.7102714,3.3661032
1204,-1.5502499,3.9675992,4.6788654
1205,-2.5755744,3.6514473,5.5052867
1206,-2.6306095,6.406184,10.86162
1207,-0.22073789,10.643873,7.0815587
1208,-2.6377878,5.8073807,8.504391
1209,2.5292134,-3.1133614,14.449957
1210,6.6014986,-9.332008,11.146666
1211,6.259026,-9.665209,11.275878
1212,1.6163517,-4.107579,11.12513
1213,0.9840483,2.5064816,8.856435
1214,0.36370903,2.5184457,7.8840513
1215,-0.9705887,-1.0534402,7.9654074
1216,-3.1914272,-3.554239,10.166804
1217,-4.853841,-3.81057,10.998011
1218,-6.834799,-3.784249,10.981261
1219,-6.841977,-3.3146574,9.740284
1220,-6.6720867,-3.4103706,8.183454
1221,-5.854938,-3.0942187,8.386844
1222,-4.2044883,-2.806781,9.033803
1223,-3.1866415,-3.2237303,10.047163
1224,-4.3172503,-3.1492536,10.523634
1225,-5.5579286,-1.8822541,10.231411
1226,-6.070591,-0.8545368,10.087841
1227,-5.6204414,-0.17168503,10.099805
1228,-5.1006007,-0.66041905,10.212268
1229,-4.781757,-1.3022938,10.41835
1230,-4.7988057,-1.5490535,9.917651
1231,-5.3159547,-1.5610176,10.554741
1232,-5.854938,-1.3313067,11.117951
1233,-6.0801625,-0.9550353,10.669895
1234,-6.2312093,-0.6891329,10.504492
1235,-5.9820566,-0.6891329,10.768001
1236,-5.6204414,-1.0941181,10.995618
1237,-5.759225,-1.3336995,11.093724
1238,-6.192924,-1.2352947,11.012368
1239,-6.1570315,-1.0654043,10.5741825
1240,-6.166603,-1.0172487,10.279267
1241,-6.0777693,-1.1156535,10.063913
1242,-6.0227346,-1.3648062,10.274482
1243,-6.355636,-1.8894325,10.334601
1244,-6.3939214,-1.9947168,10.356136
1245,-5.9988065,-2.2558336,10.3681
1246,-5.895915,-2.2223341,10.403993
1247,-5.759225,-2.114358,10.686645
1248,-5.4789658,-1.9683957,10.420743
1249,-5.131707,-1.8005991,10.04477
1250,-4.796413,-1.50359,9.196515
1251,-4.556832,-1.2999009,9.527323
1252,-4.3411784,-1.3504493,9.596714
1253,-4.281358,-1.8005991,9.48156
1254,-4.185346,-2.1649063,9.539287
1255,-4.3483567,-2.6198416,9.896116
1256,-3.9963129,-3.6786656,8.925827
1257,-3.859623,-4.191328,9.155837
1258,-3.9625144,-4.406981,10.042377
1259,-3.792624,-4.014259,10.348958
1260,-3.7591243,-3.4247274,9.996614
1261,-3.3924243,-2.5791638,10.475778
1262,-3.3876386,-2.0712872,10.140483
1263,-3.5961134,-2.0928226,9.697213
1264,-3.4259238,-2.2917259,9.541679
1265,-3.0595229,-2.8426733,8.652746
1266,-2.2761726,-3.4800615,9.086445
1267,-2.25703,-4.8095737,8.628818
1268,-2.5899315,-6.730711,8.06112
1269,-2.7553353,-8.474481,8.504391
1270,-3.6367912,-10.1683,8.693723
1271,-4.999803,-11.804392,8.252846
1272,-5.3473606,-13.073785,6.1854467
1273,-4.1638107,-12.486945,4.616353
1274,-2.513361,-12.657134,0.6445666
1275,0.10977074,-13.131512,-2.076671
1276,-1.6845472,-14.274084,-5.4924254
1277,-3.0116663,-16.223936,-7.126424
1278,-5.0766726,-23.549562,-7.4856467
1279,-9.345468,-36.384663,-10.345967
1280,-8.408678,-40.684566,-4.8194437
1281,-5.0141597,-32.283363,-1.8969102
1282,-4.156632,-26.960531,-1.4536397
1283,-2.1948166,-19.901106,-1.3770695
1284,-1.2675978,-15.28266,-0.45732823
1285,0.92183495,-8.285447,10.8015
1286,3.1088748,1.5409778,40.132122
1287,-0.05802595,-3.7411783,18.304195
1288,-2.8965118,-7.949854,-0.799801
1289,-2.7553353,-6.838388,-3.5210385
1290,-1.9145572,-5.195117,-0.009272188
1291,-7.455138,-3.0032916,16.780865
1292,-8.12124,-2.1433709,8.415557
1293,-6.834799,-1.434198,1.5239289
1294,-4.6501517,-0.84735835,-3.7821553
1295,-2.149353,0.10139586,-4.2445683
1296,-0.9131609,1.0163515,-2.8313074
1297,-0.70947194,1.4237294,-1.7410775
1298,-0.8892327,1.5002998,-1.7362919
1299,-1.1335998,2.0368903,-2.4478576
1300,-0.7573284,1.9674984,-2.3114667
1301,-0.6759724,2.1637099,-2.129313
1302,-0.47228336,2.309971,-1.9758734
1303,-0.5300102,2.5758736,-2.088635
1304,-0.5491528,2.7364917,-2.169991
1305,-0.85812604,2.9111679,-2.9653056
1306,-0.47228336,3.1292138,-4.4913282
1307,-0.52283174,2.4152553,-5.8016977
1308,-0.16091733,1.8882362,-6.9155564
1309,-0.5347959,1.2343974,-6.218348
1310,-1.9025931,0.4127619,-3.4420755
1311,-1.9265213,0.2330011,-1.3986049
1312,-1.7300107,0.17318054,-0.42861435
1313,-1.5358931,0.010169496,-0.11934203
1314,-1.3731811,-0.16689938,-0.0020937198
1315,-1.1862419,-0.38255253,0.10079765
1316,-1.049851,-0.6364908,0.0529412
1317,-0.93230355,-0.9239286,-0.34217364
1318,-0.71665037,-1.1874382,-0.89312106
1319,-0.58265233,-1.2616158,-1.2765709
1320,-0.31435707,-1.0677971,-1.4201403
1321,0.042771704,-0.88325065,-1.3770695
1322,0.50488555,-0.6556334,-1.2598212
1323,0.6343971,-0.48305106,-0.57457656
1324,0.15044872,-0.9095717,0.6445666
1325,-5.732904,-4.9292145,34.370804
1326,-8.743972,-8.045866,16.32563
1327,0.67028946,-5.3533425,-15.71905
1328,5.1667023,-6.076573,-11.423934
1329,1.4679967,-8.893823,-10.127921
1330,-17.341383,-70.858055,78.709206
1331,-48.150173,-77.65906,69.131935
1332,-26.844479,-77.65906,-6.0484576
1333,-0.59700924,-39.690346,-42.73312
1334,2.536392,-21.93022,-36.169308
1335,1.4703895,-6.835995,-12.904194
1336,-2.6138597,-0.25094727,2.4628127
1337,-1.7371893,5.6709895,8.420642
1338,-1.3731811,6.7968125,1.6818552
1339,-2.137389,6.0828543,-1.6334006
1340,-2.3216362,6.2530437,-2.766402
1341,-1.3660027,6.085247,-1.0393823
1342,-0.6735796,5.244469,3.789932
1343,-0.9514461,4.2095733,19.734505
1344,-4.0106697,1.2750753,20.65664
1345,-5.979664,-3.3649068,11.829218
1346,-5.1939206,-8.663813,8.41795
1347,0.5024927,-11.23191,8.964411
1348,4.241876,-11.0353985,11.72154
1349,0.89072824,-7.8948193,9.12473
1350,-3.979264,0.47736812,7.562815
1351,-5.1269217,6.101997,4.1108694
1352,-2.3599212,-1.4246268,4.9734817
1353,-1.5816557,-4.095615,10.451849
1354,-1.971985,-4.560421,10.864013
1355,-2.1445673,-4.584349,9.136694
1356,-3.952943,-4.70399,10.348958
1357,-6.1232333,-4.9842496,10.98844
1358,-7.555936,-4.002295,9.366704
1359,-6.774978,-3.4079776,8.8014
1360,-3.9577286,-2.629413,8.535498
1361,-1.5984055,-2.2869403,9.97508
1362,-0.32632118,-2.399702,10.852049
1363,-1.6606189,-2.984149,10.061521
1364,-3.3900316,-3.01047,10.5741825
1365,-5.165207,-3.0966115,10.11177
1366,-6.1881385,-2.1218355,9.853045
1367,-6.326922,-1.7503498,10.586146
1368,-5.7017975,-0.86171526,10.360922
1369,-6.0777693,-1.4533406,9.611072
1370,-6.2264237,-2.0784655,10.864013
1371,-6.300601,-2.3973093,10.813464
1372,-6.530611,-2.466701,10.490134
1373,-6.6478596,-2.3419752,10.325029
1374,-7.292426,-2.0545373,10.482956
1375,-7.2565336,-1.692922,10.526027
1376,-6.7989063,-1.5876378,11.072188
1377,-6.41097,-1.5203397,10.763215
1378,-5.895915,-1.4437693,10.739287
1379,-5.5965133,-1.599602,10.902298
1380,-5.61087,-1.8631115,10.916656
1381,-5.6994042,-2.0090737,11.088939
1382,-5.938986,-2.1119652,10.976476
1383,-5.922236,-1.8966111,10.490134
1384,-5.953343,-1.6235301,10.0830555
1385,-6.108876,-1.5155541,10.626824
1386,-6.1857457,-1.6163517,10.662717
1387,-6.1642103,-2.006681,10.770393
1388,-6.135496,-2.167299,10.540383
1389,-5.962914,-2.3347967,10.372886
1390,-5.649155,-2.5528426,10.04477
1391,-5.8743796,-2.7158537,10.097412
1392,-6.3388863,-2.6895328,9.560822
1393,-5.608477,-3.2572298,8.4012
1394,-5.4550376,-3.8321054,8.360522
1395,-5.6300125,-4.2248273,8.842078
1396,-5.510072,-4.895715,8.504391
1397,-4.985446,-5.077869,8.827721
1398,-4.645366,-4.9172506,8.9521475
1399,-4.4895334,-4.019045,9.769297
1400,-4.063312,-2.7756743,10.4351
1401,-4.005884,-2.4092734,10.59811
1402,-3.9098723,-2.3276181,10.214661
1403,-3.3780673,-2.562414,7.2442703
1404,-2.71705,-2.8019953,7.778468
1405,-1.2580265,-4.0788655,9.012267
1406,-1.1048858,-5.331807,9.117552
1407,-2.6282165,-7.518847,8.789435
1408,-3.694219,-8.680562,7.5843506
1409,-4.3268213,-10.1802635,3.6870406
1410,-4.5158544,-10.673485,1.7563318
1411,-3.7615173,-10.774282,-4.8026943
1412,-2.7146573,-10.898709,-6.527321
1413,3.1519456,-14.741283,-5.1260242
1414,-3.054737,-19.091434,-7.0112696
1415,-5.239384,-35.490944,-10.477572
1416,-5.689833,-42.543488,-9.256036
1417,-7.0672016,-42.002113,-6.434001
1418,-6.3915286,-32.729027,-5.365606
1419,-4.6381874,-24.395126,-4.534399
1420,-2.2905295,-17.788244,-2.4933212
1421,1.8894325,-6.7354965,19.001404
1422,7.3345995,2.96381,52.459347
1423,1.6307086,-4.85743,24.484858
1424,-2.7984061,-8.05783,2.4580271
1425,-5.3976097,-6.565307,2.5082762
1426,-11.965908,-7.2385874,12.320345
1427,-13.544573,-7.8661056,4.592425
1428,-11.084452,-5.8875403,-4.8194437
1429,-7.6779695,-4.234399,-0.22731815
1430,-4.700401,-0.6987042,0.32362926
1431,-2.7960134,0.14446667,-0.35174492
1432,-1.11685,0.7408777,-1.396212
1433,-0.6472585,0.99960166,-2.716153
1434,-0.3789633,1.1554343,-3.2910285
1435,0.0017946169,1.5816557,-3.4827533
1436,0.5479564,1.742274,-4.069593
1437,-0.06999006,2.096711,-3.9140596
1438,-0.019740786,2.2740788,-3.1259236
1439,-0.25932217,2.4128625,-2.632404
1440,0.37328035,2.2788644,-2.795116
1441,1.0247263,2.676372,-3.4660037
1442,0.45942193,1.8882362,-4.8696933
1443,1.137488,2.2405794,-7.5406814
1444,2.8142586,2.5136602,-10.338788
1445,2.3255246,2.0249262,-9.833304
1446,0.07148558,0.56859446,-4.287639
1447,-0.86291164,0.2856432,-2.5941188
1448,-1.5741782,0.063110694,-1.1063814
1449,-1.061815,0.051146585,-0.2536392
1450,-1.061815,0.051146585,-0.2536392
1451,-1.049851,-0.53359944,-0.29671
1452,-1.2699906,-0.634098,-0.5051847
1453,-1.5430715,-0.8258229,-0.83090764
1454,-1.5335002,-0.9454641,-0.9290134
1455,-1.5143577,-0.9693923,-0.785444
1456,-1.334896,-0.8952148,-0.7112665
1457,-1.0570294,-0.7322037,-0.4549354
1458,-0.4651049,-0.32033914,-0.0020937198
1459,-0.27128628,-0.111864455,0.48185465
1460,-0.10348958,-0.05922236,0.910469
1461,2.4358935,-4.955536,75.166336
1462,-7.07438,-15.318551,-10.913664
1463,-5.2609196,-14.966507,-18.581465
1464,-0.9873384,-11.152647,-18.57668
1465,7.772785,-10.383654,-13.704293
1466,-9.742975,-24.845276,21.964617
1467,-10.406385,-52.206905,38.668613
1468,-10.69173,-77.65906,52.713284
1469,-26.942585,-77.65906,38.17988
1470,-10.552647,-43.67649,-17.8029
1471,-1.8595223,-22.258335,-25.68426
1472,-1.7515461,-11.018649,-16.123735
1473,-2.82712,-8.033902,-12.276675
1474,-4.6836514,-1.7048861,2.2905295
1475,-5.3039904,3.1172497,12.923934
1476,-4.6262236,2.353042,3.9457645
1477,-4.894519,2.7029922,1.6100706
1478,-3.4163525,2.96381,3.801896
1479,-3.1337004,2.8082764,8.16431
1480,-2.0724835,3.1842487,10.387243
1481,-0.7190432,4.267001,12.425629
1482,4.0094733,1.1362916,10.684252
1483,7.2003026,-3.431906,12.382558
1484,4.7401814,-10.067502,12.087942
1485,0.48095736,-8.855537,9.999007
1486,-2.7768707,-2.3949163,9.754641
1487,-3.4331024,2.4586253,7.007082
1488,-3.4860435,2.353042,5.9410796
1489,-3.9361932,-1.3719847,7.43121
1490,-5.299205,-3.5327036,9.04816
1491,-6.0514483,-4.3208394,10.334601
1492,-6.736693,-4.613063,10.897512
1493,-6.149853,-3.9661036,10.135697
1494,-6.841977,-3.1253254,11.446067
1495,-5.3330035,-2.5600212,10.919048
1496,-2.6473591,-2.1744776,10.77518
1497,-2.3694925,-2.1816561,10.986047
1498,-2.8725836,-2.5169504,10.823036
1499,-5.0476594,-1.9420747,11.060225
1500,-6.094519,-1.6235301,10.509277
1501,-7.376175,-0.87367934,9.932009
1502,-8.344071,-0.66759753,9.876974
1503,-7.826624,-0.71306115,10.0061865
1504,-6.5497537,-0.8330014,10.377672
1505,-5.2776694,-0.48305106,10.533205
1506,-5.0141597,-0.22671995,10.813464
1507,-5.3159547,-0.4854439,11.0964155
1508,-5.7664037,-0.8042875,11.405389
1509,-6.0514483,-0.8952148,11.759826
1510,-6.3388863,-0.89760756,11.367104
1511,-6.3676,-1.0316057,11.192129
1512,-6.2407804,-1.0387841,10.473385
1513,-6.1040907,-1.244866,10.791929
1514,-6.017949,-1.625923,11.196915
1515,-5.7687964,-1.8388842,10.97169
1516,-5.6946187,-2.0832512,11.081759
1517,-5.895915,-2.1888344,11.029118
1518,-5.625227,-2.3611178,10.480563
1519,-5.282455,-2.5097718,10.336994
1520,-4.930411,-2.6389842,10.332209
1521,-4.7916274,-2.792424,10.068699
1522,-4.645366,-3.173182,9.701999
1523,-4.8658047,-3.281158,9.826724
1524,-4.7075796,-3.3122647,8.1738825
1525,-4.523332,-3.269194,8.988339
1526,-4.3579283,-3.633202,9.361918
1527,-4.237988,-3.784249,8.69133
1528,-3.8117664,-3.5063825,10.463814
1529,-3.6774693,-3.3074791,11.290235
1530,-3.7013974,-2.5671997,11.836396
1531,-3.5267215,-2.044966,11.268699
1532,-3.449852,-1.8487546,9.65175
1533,-3.7471602,-1.7048861,10.025628
1534,-3.8811584,-1.82692,9.637392
1535,-3.7734814,-2.126621,9.83151
1536,-3.830909,-2.8235307,8.720044
1537,-2.7672994,-4.109972,7.598707
1538,-2.784049,-6.047859,7.7330046
1539,-3.8811584,-8.072187,6.3053865
1540,-4.942375,-9.679565,4.1347976
1541,-5.4239306,-10.213763,0.8913264
1542,-5.8477592,-11.06172,-2.3665016
1543,-5.907879,-12.439089,-2.85045
1544,-6.707979,-16.434803,-5.425426
1545,-2.134996,-20.61028,-4.4817567
1546,-3.9864426,-23.041685,-3.4683964
1547,-6.3532434,-38.23611,-6.1585274
1548,-7.7739816,-44.134117,-7.626823
1549,-6.7055864,-39.529728,-6.532107
1550,-5.6180487,-31.610384,-6.2231336
1551,-3.8811584,-23.542383,-3.664907
1552,-1.8233309,-16.947466,3.0690942
1553,0.06909275,-8.556135,22.819752
1554,-1.4641083,-2.1529422,35.597424
1555,-2.2187448,-3.760321,21.195623
1556,-2.8869405,-6.8072815,5.0069814
1557,-1.8257236,-6.594021,-3.6191442
1558,-1.9504496,-5.5663037,-0.42861435
1559,-8.097312,-6.146264,16.34956
1560,-9.55125,-6.0574307,10.969297
1561,-5.388038,-4.328018,1.9214365
1562,-1.8858434,-3.1013973,-6.350252
1563,-1.2029916,-2.263012,-8.772088
1564,-0.12981063,-0.8330014,-6.855736
1565,0.040378883,0.6308079,-3.6167514
1566,0.24616162,1.2726825,-2.8576283
1567,0.64636123,1.3229318,-2.3425734
1568,1.1853445,1.9698912,-1.9184456
1569,1.2284154,1.9100707,-1.2598212
1570,1.2116655,1.7542381,-1.4201403
1571,1.2260225,1.6657037,-1.7362919
1572,1.1877373,1.5553347,-1.7410775
1573,1.2978072,1.9268204,-2.7927232
1574,1.9830518,2.5208387,-4.7955155
1575,3.5234313,3.3281171,-6.108278
1576,2.821437,2.6428726,-7.167102
1577,2.4837499,2.6021945,-7.397112
1578,1.9495523,2.477768,-6.527321
1579,-0.2641078,1.931606,-7.1216383
1580,-0.36699918,1.3325031,-5.643472
1581,-0.30957142,0.79112697,-4.2948174
1582,-1.0375878,0.43908295,-3.0227332
1583,-1.6462619,0.23778675,-2.0718853
1584,-1.8978075,0.012562319,-1.20688
1585,-2.1708884,-0.18843478,-0.40677986
1586,-2.2905295,-0.30358937,-0.30867413
1587,-2.5444677,-0.5982057,-0.31106696
1588,-2.5516462,-0.6891329,-0.16510476
1589,-2.6042883,-0.74416786,-0.19142582
1590,-2.4511478,-0.7851449,-0.40917268
1591,-1.8786649,-0.526421,-0.10737792
1592,-0.95383894,-0.2724827,0.22791636
1593,-0.6687939,-0.18125631,0.58235323
1594,-1.102493,-0.58624154,13.132409
1595,-4.0609193,-5.983253,43.988754
1596,-12.608082,-15.672988,13.743176
1597,-7.282855,-16.47309,-11.217852
1598,-0.8748758,-12.856038,-17.961124
1599,0.8787641,-11.341979,-15.663716
1600,-9.012267,-34.43212,28.449165
1601,-5.9437714,-69.638916,43.857147
1602,-12.984054,-77.61838,37.643288
1603,-18.534506,-59.00521,7.5149584
1604,-8.051848,-36.252758,-12.137593
1605,-5.4000025,-15.684953,-13.345071
1606,-3.5745778,-7.4587274,-7.2556367
1607,-3.8787656,-2.725425,-0.8045866
1608,-2.515754,1.7111673,6.099305
1609,-2.652444,2.4032912,4.64746
1610,-3.5267215,2.3961127,3.1983066
1611,-3.4956148,3.167499,2.759822
1612,-2.4990041,3.1052856,4.1614175
1613,-1.7347964,3.6921253,5.624928
1614,-2.0006988,4.7772703,9.155837
1615,1.2930216,8.660522,13.664214
1616,3.0227332,6.0397835,8.360522
1617,3.7052858,-2.6126633,12.008979
1618,2.603391,-9.842278,9.903295
1619,0.5479564,-9.435199,9.529716
1620,-1.9049859,-6.1196437,10.224232
1621,-2.324029,-3.712165,9.024232
1622,-2.364707,-3.077469,7.7617183
1623,-2.8366911,-2.929114,7.8670025
1624,-5.663512,-1.5251254,7.8287177
1625,-6.858727,-1.6594225,7.186843
1626,-7.0576305,-1.6498512,8.161918
1627,-7.0193453,-1.937289,10.221839
1628,-6.9523463,-2.3467607,11.350055
1629,-6.1184473,-2.6365914,12.011372
1630,-4.5062833,-2.4092734,12.040086
1631,-3.1504502,-2.2031915,11.29502
1632,-3.0930223,-1.6977077,10.272088
1633,-4.039384,-1.0582259,10.133305
1634,-5.502894,-0.8856435,9.553643
1635,-6.084948,-1.7168503,9.596714
1636,-6.5808606,-2.478665,10.998011
1637,-5.6204414,-2.5337,11.49153
1638,-5.61087,-2.6246274,11.884253
1639,-6.425327,-2.4355943,11.529816
1640,-7.055238,-2.004288,11.467603
1641,-7.0672016,-1.5610176,11.647364
1642,-6.803692,-1.340878,11.565708
1643,-6.818049,-1.218545,11.690434
1644,-7.0863442,-1.314557,11.61835
1645,-7.064809,-1.4389837,11.910872
1646,-7.143772,-1.4222339,11.388639
1647,-7.342675,-1.4724833,10.935798
1648,-7.402496,-1.474876,10.118948
1649,-7.266105,-1.6498512,10.269695
1650,-7.071987,-2.0904298,10.375279
1651,-6.8132634,-2.3754747,10.772787
1652,-6.707979,-2.5528426,10.856834
1653,-6.2694945,-2.861816,10.583754
1654,-5.7640104,-2.9578278,10.4566345
1655,-5.5627146,-3.0176485,9.955936
1656,-5.2680984,-2.8522446,9.256635
1657,-5.2513485,-2.7852457,9.4890375
1658,-4.9806604,-3.0535407,9.407382
1659,-4.813163,-3.1803603,9.318848
1660,-4.8323054,-3.3433714,9.960723
1661,-4.5424747,-3.513561,9.134301
1662,-4.240381,-3.3840494,9.177372
1663,-3.588935,-3.3122647,9.8219385
1664,-2.7816563,-3.4007993,9.977472
1665,-2.283351,-3.2452657,10.087841
1666,-2.134996,-3.1803603,9.932009
1667,-2.0341983,-2.6413772,10.746466
1668,-2.297708,-1.9253249,11.199307
1669,-2.0318055,-1.4844474,11.239985
1670,-2.5444677,-1.4030914,11.484352
1671,-2.8965118,-1.6402799,11.007583
1672,-2.9084759,-2.0162523,10.89512
1673,-3.1866415,-2.6775684,9.323633
1674,-3.2177482,-4.0357943,9.086445
1675,-3.600899,-5.4059844,8.470891
1676,-3.979264,-6.9798636,7.450352
1677,-4.9256253,-8.072187,5.131408
1678,-6.219245,-8.879466,2.0413768
1679,-6.3508506,-9.689137,-1.2092727
1680,-5.979664,-10.755139,-4.6085763
1681,-5.368896,-10.8556385,-5.226523
1682,-6.7678,-15.8025,-6.870093
1683,-5.58425,-20.715563,-5.643472
1684,-6.9209404,-29.35126,-6.7645097
1685,-6.1450677,-38.973995,-5.902196
1686,-5.8525453,-38.28187,-5.2217374
1687,-5.1125646,-33.612877,-4.750052
1688,-2.4439692,-24.009283,-3.923631
1689,-0.31914273,-17.519949,-2.6922245
1690,3.7172499,-7.676773,14.514563
1691,7.2409806,1.3372887,45.090946
1692,3.7387853,-5.628816,20.472393
1693,1.0199406,-8.915359,5.349454
1694,-0.78394854,-7.8110704,7.373782
1695,-11.556436,-7.363014,22.582563
1696,-10.955239,-7.382157,8.190632
1697,-6.3460646,-5.3294144,-4.4602213
1698,-2.9542387,-4.5098724,-6.8988066
1699,-1.1742777,-2.9386854,-8.132307
1700,0.15523437,-2.1242282,-5.784948
1701,0.8210373,-0.5479564,-4.912764
1702,1.2762718,0.69541407,-3.7199419
1703,0.622433,1.2655041,-3.6553357
1704,0.17437695,2.012962,-3.446861
1705,0.4642076,1.9363917,-3.0155547
1706,0.02841477,2.461018,-2.5411777
1707,-0.654437,2.6548367,-3.1259236
1708,-0.8006983,2.7939196,-2.996412
1709,-1.3420744,3.481258,-4.6612186
1710,-0.328714,4.604987,-8.5372925
1711,0.41635114,4.662415,-9.203095
1712,0.44027936,3.1387851,-8.877372
1713,-0.07716853,2.5256243,-7.246065
1714,-0.7262217,1.5840486,-5.823233
1715,-1.8424734,0.424726,-3.4444683
1716,-1.8714864,0.1372882,-1.7748762
1717,-1.7635103,0.21625134,-0.8380861
1718,-1.5430715,0.36729828,0.38823548
1719,-1.4377873,0.4127619,0.5512465
1720,-1.2173486,0.3290131,0.47946185
1721,-1.4114662,0.2760719,0.3164508
1722,-1.2125629,0.23539393,0.30209386
1723,-0.98973125,0.22342981,0.23030917
1724,-0.75493556,0.24735804,0.19441684
1725,-0.56590253,0.25692934,0.23748764
1726,-0.47946185,0.20428723,0.3044867
1727,0.9553344,0.41754755,6.492027
1728,3.7363925,-0.6987042,20.841187
1729,4.512564,-2.658426,29.419455
1730,2.2034905,-6.6514487,21.955046
1731,-11.2088785,-12.122937,-15.251851
1732,-8.791828,-11.351551,-16.983658
1733,-2.1397817,-7.446763,-15.405292
1734,0.6798607,-6.2587266,-10.434502
1735,-1.9360926,-11.813964,-6.4962144
1736,-25.816761,-57.87221,73.44889
1737,-40.951664,-77.56783,71.21369
1738,-20.137098,-77.65906,3.8497524
1739,-5.093422,-41.944386,-28.503603
1740,3.405884,-20.00639,-33.76901
1741,4.34746,-11.176576,-20.471495
1742,3.2647073,-6.5605216,-12.302997
1743,2.672783,-1.6474584,-6.282954
1744,3.4465618,3.4166517,5.79751
1745,2.0979073,7.8149586,21.308384
1746,1.0271192,5.4840503,12.658031
1747,-2.105983,2.2645075,1.0974083
1748,-2.120639,0.6116653,-3.2120652
1749,-2.6739793,1.3085749,3.2916267
1750,-0.40767714,3.1172497,12.938292
1751,1.5972091,3.8096728,19.027725
1752,1.6788642,0.10139586,8.132905
1753,8.889337,-4.124329,11.422139
1754,5.7631135,-7.7368927,12.210275
1755,1.2499508,-6.730711,9.64457
1756,-1.6941184,-1.6594225,7.8693953
1757,-2.606681,2.3721845,4.3121657
1758,-3.7109687,0.8344969,5.2609196
1759,-4.64058,-1.0339985,8.501998
1760,-5.625227,-2.5528426,10.610075
1761,-6.142675,-3.293122,10.126126
1762,-6.38435,-3.81057,10.087841
1763,-5.541179,-3.609274,9.728319
1764,-4.968696,-2.7349963,9.982258
1765,-4.113561,-1.707279,9.131908
1766,-2.9829526,-1.5538392,9.479167
1767,-1.9600209,-1.9707886,11.03151
1768,-2.7936203,-3.0008986,11.007583
1769,-3.572185,-3.161218,9.788439
1770,-5.5076795,-3.2309089,8.870791
1771,-6.736693,-1.8678972,3.571886
1772,-7.4697943,-2.0928226,14.502599
1773,-9.32124,-1.96361,14.746966
1774,-7.852945,-1.3863416,12.919148
1775,-5.0958147,-1.4653047,11.024332
1776,-6.166603,-1.5777674,6.791429
1777,-7.903194,-1.2783655,8.473284
1778,-7.4048886,-1.2927225,10.427921
1779,-6.8778696,-1.2376875,11.067403
1780,-6.7031937,-0.71306115,11.189736
1781,-6.7678,-0.6723832,11.762218
1782,-6.6984076,-1.1371889,12.459428
1783,-6.2264237,-1.4294125,12.131013
1784,-6.154639,-1.6067804,11.560923
1785,-6.3532434,-1.407877,11.069796
1786,-6.4827547,-1.2616158,10.921441
1787,-6.0634127,-1.3815559,10.904691
1788,-5.9007006,-1.5610176,10.921441
1789,-5.8743796,-1.7670995,11.244771
1790,-6.1331034,-1.8846469,10.873585
1791,-6.1713886,-2.0784655,10.650753
1792,-6.489933,-2.2175484,10.487741
1793,-6.628717,-2.315654,9.742677
1794,-6.561718,-2.3084757,9.522537
1795,-6.355636,-2.265405,9.41456
1796,-5.8094745,-2.3802602,9.292527
1797,-5.4000025,-2.6222346,9.09123
1798,-4.9782677,-2.8474588,9.594321
1799,-4.621438,-3.0439694,10.010972
1800,-4.089633,-2.926721,9.64457
1801,-3.1890345,-2.8019953,8.633603
1802,-2.0557337,-2.9817562,8.645567
1803,-1.3683954,-2.87378,9.230313
1804,-0.62093747,-2.778067,9.376275
1805,-0.369392,-2.478665,8.81815
1806,-0.81984085,-2.0497518,9.38824
1807,-1.0304092,-1.7359928,11.093724
1808,-1.5816557,-1.3384851,12.157333
1809,-1.9097716,-0.84735835,12.914363
1810,-1.9265213,-0.6221339,10.41835
1811,-1.8400806,-0.8042875,9.021839
1812,-2.283351,-1.1874382,8.468498
1813,-2.9685955,-2.315654,8.873184
1814,-3.4908292,-3.4055848,9.774082
1815,-4.7841496,-5.1400824,9.268599
1816,-5.680262,-6.6562343,4.2020955
1817,-6.017949,-8.210971,2.0222342
1818,-4.9878387,-9.245867,-2.591726
1819,-6.727122,-11.361122,-5.645865
1820,-7.589435,-14.825032,-8.582756
1821,-10.104591,-22.279871,-10.391431
1822,-9.402896,-38.346478,-8.48465
1823,-6.477969,-49.935814,-6.129813
1824,-6.18096,-47.078186,-6.6089764
1825,-4.2020955,-37.75964,-8.230712
1826,-3.2919257,-30.072397,-5.859125
1827,-1.4617156,-22.179073,-3.1953156
1828,-0.019740786,-16.104294,-1.5640087
1829,3.065804,-5.154439,16.569998
1830,3.417848,1.8810577,41.531025
1831,2.5292134,-1.1467602,28.983364
1832,0.65353966,-5.7006006,6.793822
1833,0.2844468,-5.3123655,2.3144577
1834,-2.1517458,-3.5327036,9.5919285
1835,-9.809975,-3.283551,22.264019
1836,-10.454541,-4.356732,9.903295
1837,-7.32114,-3.3720853,-1.5951154
1838,-4.384249,-2.8307092,-8.580363
1839,-3.2153554,-1.3432708,-13.716258
1840,-1.9336998,-0.116650105,-8.156235
1841,-1.5598212,0.6786643,-5.0422754
1842,-1.0136595,1.6175481,-2.2178476
1843,0.47138608,2.1254246,-1.9878374
1844,-0.26889345,2.4969103,-2.2130618
1845,0.2318047,2.1062822,-1.6286149
1846,0.6415756,2.0823538,-1.0968101
1847,0.7899306,2.1831515,-0.4956134
1848,0.7372885,2.096711,-0.2656033
1849,0.5455636,2.0416758,-0.2727818
1850,0.14566308,1.0809577,-0.9026923
1851,0.29162526,0.9732806,-1.6884354
1852,0.32063824,0.98524475,-2.3665016
1853,0.8380861,1.3229318,-6.443572
1854,1.2044871,1.6896319,-8.640183
1855,1.0295119,1.5433706,-8.829515
1856,-0.20638095,0.90388876,-5.305785
1857,-0.7286145,0.65952176,-2.4430718
1858,-0.6855437,0.75284183,-1.1997014
1859,-1.0160524,0.7217351,-0.78783685
1860,-1.3325031,0.58534425,-0.40917268
1861,-1.6917256,0.40079778,-0.32303107
1862,-1.8667008,0.16360925,-0.17467605
1863,-1.8762721,-0.047258247,0.110368945
1864,-1.7108682,-0.25573292,0.36909288
1865,-1.5693926,-0.36580276,0.517747
1866,-1.2269198,-0.46151567,0.51535416
1867,-0.7501499,-0.37537405,0.7262217
1868,-0.5419743,-0.46151567,0.90089774
1869,-0.74536425,-2.236691,23.263021
1870,-6.707979,-7.2840514,29.604002
1871,-2.297708,-4.0501513,-16.971693
1872,-0.08673982,-5.3270216,-10.168599
1873,-1.2412767,-11.55524,-8.649755
1874,-27.84109,-77.65906,75.74121
1875,-23.112274,-77.65906,71.525055
1876,-4.8011985,-75.38079,-15.61586
1877,5.2313085,-32.249866,-40.042988
1878,4.3331027,-12.458231,-32.559437
1879,1.4249259,-3.3481572,-14.598013
1880,-1.4210376,-0.24376881,-3.3460634
1881,-3.399603,4.5711884,2.6018956
1882,-3.696612,6.5668025,5.689534
1883,-3.7304106,5.503193,4.805685
1884,-2.7218359,5.0192447,3.9649072
1885,-1.8858434,4.324728,5.229813
1886,-2.4104698,4.2335014,6.02752
1887,-4.3387856,2.338685,11.630613
1888,-3.39721,-0.7393822,7.49103
1889,-6.046663,-3.661916,3.5742788
1890,-3.0810583,-7.906783,14.318352
1891,3.2069805,-9.2793665,17.887547
1892,7.945368,-9.068499,14.184054
1893,6.3140607,-8.69492,6.4824557
1894,3.3005998,-5.9210396,5.4667025
1895,-0.33589247,-2.0401804,6.1974106
1896,-2.923132,1.3109677,6.108876
1897,-5.4023952,3.4836507,5.4355955
1898,-5.445466,3.1028929,5.2513485
1899,-4.8179483,0.99003035,8.743972
1900,-4.228417,-1.5466608,10.840085
1901,-3.2009985,-3.5877385,11.206486
1902,-3.4043884,-4.5747776,9.668499
1903,-3.790231,-4.4811587,7.958229
1904,-3.8668015,-3.798606,8.073085
1905,-3.1624143,-3.6714873,8.334201
1906,-1.5526428,-3.3122647,9.155837
1907,-1.320539,-3.1974092,9.112766
1908,-2.0437696,-2.4930222,9.256635
1909,-4.1087756,-1.7670995,9.38824
1910,-5.3593245,-1.4724833,7.550851
1911,-6.2120667,-1.4724833,7.0669026
1912,-7.428817,-1.7982062,5.577071
1913,-5.742475,-2.1314068,6.4585276
1914,-7.6947193,-3.0583265,16.900507
1915,-7.4647093,-2.902494,14.77568
1916,-7.7330046,-2.2175484,10.202697
1917,-8.12124,-2.3949163,14.016257
1918,-5.9988065,-1.7766708,7.2993054
1919,-7.1413794,-0.91435736,6.4537416
1920,-8.423035,-0.31316066,8.683852
1921,-7.8984084,-0.72502524,11.1682005
1922,-7.036095,-0.96460664,11.223235
1923,-7.119844,-1.0773684,10.962119
1924,-7.974979,-1.3121641,12.142977
1925,-7.266105,-1.5323038,11.932408
1926,-7.0576305,-1.3695918,11.268699
1927,-6.9762745,-1.4198412,11.676077
1928,-6.9523463,-1.230509,11.54178
1929,-6.84437,-1.3528421,12.12862
1930,-6.686444,-1.5227325,11.965908
1931,-6.602396,-1.4964114,11.441281
1932,-7.0145597,-1.7862421,11.505888
1933,-7.254141,-2.0018952,11.216057
1934,-7.3235326,-2.0282164,10.468599
1935,-7.301997,-1.9396819,9.793225
1936,-6.940382,-1.8846469,10.274482
1937,-6.4085774,-1.8583258,10.18834
1938,-5.7400823,-1.6354942,9.735498
1939,-5.47418,-1.5418751,9.809975
1940,-5.172385,-1.5179468,9.721141
1941,-5.3449674,-1.6474584,9.570394
1942,-5.476573,-2.224727,8.81815
1943,-5.217849,-2.778067,7.917551
1944,-4.508676,-3.1516466,7.958229
1945,-4.4632125,-3.6020954,8.595318
1946,-3.9720855,-3.851248,8.806186
1947,-2.8366911,-3.906283,8.645567
1948,-1.9624137,-3.254837,10.013365
1949,-1.5000007,-2.3925235,9.385847
1950,-1.1623136,-1.4030914,10.432707
1951,-1.591227,-1.1132607,11.237593
1952,-2.3192434,-1.1276177,11.989836
1953,-2.5636103,-0.9957133,11.017154
1954,-2.8319056,-1.2831511,11.000404
1955,-3.409174,-2.3802602,9.309277
1956,-3.8548372,-3.3792639,8.2049885
1957,-4.036991,-4.083651,6.678966
1958,-4.336393,-5.5591254,7.3064837
1959,-5.476573,-6.7761745,5.069195
1960,-6.3508506,-7.734201,1.2556337
1961,-6.6335025,-9.174082,-1.8251255
1962,-7.4865437,-13.076178,-5.6578293
1963,-7.622935,-15.692131,-8.867801
1964,-8.633903,-18.351154,-8.839087
1965,-6.2144594,-27.41098,-7.4138618
1966,-6.0394845,-40.128834,-2.8313074
1967,-5.2609196,-46.505405,-4.043272
1968,-2.990131,-37.35944,-3.7558343
1969,-3.0930223,-32.007893,-4.9992046
1970,-1.8786649,-23.911177,-3.9116669
1971,-0.56350976,-17.079071,-2.1604197
1972,3.295814,-6.155835,11.067403
1973,10.1348,3.2201412,36.74239
1974,6.637391,-1.1252248,22.517956
1975,1.9016958,-3.5757744,15.856039
1976,-1.9097716,-3.283551,16.625032
1977,-7.742875,-3.0846474,21.792034
1978,-11.386247,-5.401199,11.060225
1979,-11.038988,-5.2166524,-2.0455642
1980,-6.969096,-4.625027,-8.9013
1981,-2.352743,-3.1803603,-11.593824
1982,-1.5023935,-1.7407784,-8.108378
1983,-0.6472585,-0.74416786,-5.839983
1984,0.040378883,0.00059820566,-5.185845
1985,0.526421,0.8632108,-5.1738806
1986,-0.02213361,1.1506486,-4.56072
1987,-0.36699918,1.5816557,-3.542574
1988,-0.7645068,1.8786649,-2.1149561
1989,-0.9490533,2.1134605,-0.7543373
1990,-0.8389834,2.219044,-0.08823533
1991,-0.56590253,2.355435,-0.12412767
1992,-0.30000013,2.5112674,-0.22731815
1993,0.1480559,2.798705,-0.8141579
1994,0.12173485,2.3745773,-1.7195421
1995,-0.23030917,1.9100707,-3.6960137
1996,-0.24735804,1.4548361,-7.044769
1997,-1.4330016,0.3290131,-9.31825
1998,-2.48704,-0.47108695,-6.541678
1999,-1.7395821,-0.23389842,-2.7831519
2000,-1.4928222,0.10857433,-0.799801
2001,-1.3588241,0.118145615,-0.09302098
2002,-1.3779668,0.067896344,0.07926225
2003,-1.3995022,-0.061615184,0.31405798
2004,-1.3540385,-0.20518455,0.46031925
2005,-1.3540385,-0.32991043,0.49142596
2006,-1.3058829,-0.32512477,0.44117668
2007,-1.1001002,-0.212363,0.44117668
2008,-0.5706882,0.014955142,0.4244269
2009,-0.11545369,0.34337005,0.36430725
2010,0.16959131,0.33140594,0.54406804
2011,1.8822541,-0.19800608,30.842287
2012,-4.8418765,-7.434799,32.358738
2013,-9.73819,-7.0229344,-14.667404
2014,1.9686948,-3.8344984,-17.441284
2015,1.137488,-6.6299133,-13.603795
2016,-1.5816557,-21.549162,-7.265208
2017,-10.30828,-77.65906,65.62017
2018,-28.945377,-77.65906,27.19413
2019,-10.921441,-50.7407,-23.111376
2020,-1.9145572,-21.431913,-31.86462
2021,-2.3048863,-5.729315,-16.27239
2022,-3.4956148,-2.3132613,-8.652147
2023,-4.4464626,1.6657037,0.25663024
2024,-4.645366,3.8120656,0.63978094
2025,-4.7988057,5.1966124,-2.1053848
2026,-5.433502,5.05753,-4.345067
2027,-3.859623,5.7260246,-3.3077781
2028,-2.3913271,5.2827544,-0.8285148
2029,-3.138486,5.016852,3.7971103
2030,-4.21406,4.619344,12.842578
2031,-3.1097722,1.8690935,18.076878
2032,-3.739982,-4.807181,12.871292
2033,-5.3353963,-9.224331,8.708079
2034,1.137488,-13.564912,13.623536
2035,5.4493546,-14.923138,14.143376
2036,7.797013,-10.520344,11.239985
2037,4.5966125,-7.5643106,4.5804605
2038,-0.07956135,-4.004688,3.164807
2039,-2.5253253,-1.8293129,4.288237
2040,-4.1997027,1.0163515,5.2752767
2041,-5.3353963,3.2443683,3.571886
2042,-3.2249267,2.786741,4.642674
2043,-2.8989046,1.1673983,7.90798
2044,-2.650051,-1.3217354,10.442278
2045,-2.3790638,-4.991428,11.918052
2046,-2.7888348,-6.0023956,10.114162
2047,-3.3469608,-4.7542396,9.565608
2048,-2.9733813,-3.4824543,9.237492
2049,-1.8714864,-2.8402805,9.045767
2050,-0.40528435,-3.1133614,8.959625
2051,-0.31914273,-3.460919,10.305887
2052,-2.204388,-3.501597,7.931908
2053,-4.0585265,-3.3050864,6.4345994
2054,-5.9150577,-2.7230322,1.3393825
2055,-6.3053865,-2.9482565,7.5723863
2056,-6.9451675,-4.1051865,18.500706
2057,-5.649155,-3.5877385,9.558429
2058,-6.59761,-2.3371894,12.74208
2059,-6.571289,-2.5600212,16.244274
2060,-4.5879383,-2.30369,7.3232336
2061,-8.015956,-2.0210378,5.4499526
2062,-9.287741,-1.6211374,7.862217
2063,-9.007482,-1.489233,10.142876
2064,-7.4216385,-1.3576277,9.769297
2065,-6.547361,-1.4844474,10.9788685
2066,-5.4239306,-1.8678972,11.884253
2067,-5.9964137,-2.0952153,12.368201
2068,-6.3341007,-2.672783,12.305987
2069,-6.8132634,-2.4068804,11.975479
2070,-7.2397842,-1.9301106,11.568101
2071,-7.41446,-1.5610176,11.546566
2072,-7.2038918,-1.5924234,11.120344
2073,-6.41097,-1.7216359,10.449456
2074,-6.2455664,-1.7264216,10.056734
2075,-6.454041,-2.140978,10.451849
2076,-6.6071815,-2.3539393,10.720144
2077,-7.0002027,-2.6799614,10.806286
2078,-6.7965136,-2.766103,10.753644
2079,-6.466005,-2.8259234,10.020543
2080,-6.298208,-2.6608188,9.627821
2081,-5.895915,-2.3300111,8.89472
2082,-5.6156554,-1.9061823,8.739186
2083,-5.0958147,-1.4150555,9.326026
2084,-4.8562336,-1.2975081,9.658928
2085,-3.99392,-1.3648062,8.796615
2086,-3.9864426,-1.5586249,8.224132
2087,-4.592724,-2.1047866,7.605886
2088,-3.3900316,-2.7756743,7.416853
2089,-3.0332017,-3.3050864,8.727222
2090,-2.841477,-3.8201413,9.498609
2091,-2.3790638,-4.1434717,10.549955
2092,-2.1011975,-4.1339,11.084152
2093,-1.7204394,-3.6140594,10.015758
2094,-1.8400806,-2.9338996,9.1821575
2095,-2.4822545,-2.169692,9.812367
2096,-2.94706,-1.9061823,10.66511
2097,-3.152843,-2.2606192,10.518848
2098,-2.8175488,-2.8929226,9.361918
2099,-2.295315,-3.5566318,9.87458
2100,-2.6018956,-4.3208394,8.195417
2101,-2.8223343,-5.0922256,6.9448686
2102,-3.3637104,-6.3951178,8.592925
2103,-4.2717867,-7.2122664,7.253842
2104,-4.8969116,-7.980961,2.9443684
2105,-6.250352,-9.756136,2.2495525
2106,-6.99781,-11.286944,-1.4946169
2107,-7.472187,-13.32533,-5.9117675
2108,-7.359425,-16.66242,-9.030811
2109,-7.9558363,-22.241585,-9.238987
2110,-5.634798,-32.49184,-6.6592255
2111,-7.335497,-42.938602,-3.204887
2112,-5.6324053,-41.834316,-4.004987
2113,-3.9816568,-34.233517,-3.1570303
2114,-2.4320052,-27.480371,-4.134199
2115,-0.46749774,-20.631815,-3.0035906
2116,1.2906287,-14.195121,1.8161523
2117,6.814759,-3.8344984,25.23441
2118,4.397709,-2.8905299,30.138199
2119,1.6477575,-6.404988,16.625032
2120,-0.5347959,-6.6299133,10.751251
2121,-5.217849,-5.178367,16.955542
2122,-9.539287,-5.413163,13.381561
2123,-7.5678997,-4.553242,-0.43818563
2124,-3.7663028,-3.906283,-5.152345
2125,-1.6749759,-3.3984063,-8.563613
2126,-0.92512506,-1.7096717,-6.5754766
2127,-0.7429714,-0.94307125,-5.5166526
2128,0.18155542,1.1171491,-2.5989046
2129,0.46181476,1.905285,-2.71376
2130,0.3589234,2.3482563,-2.5869403
2131,0.12412767,2.1302104,-2.129313
2132,-0.21355942,2.1038892,-1.9519451
2133,-0.21355942,2.1038892,-1.9519451
2134,-0.41485563,2.0751755,-1.6190436
2135,-0.9418748,2.4562325,-2.292324
2136,-1.5071791,2.8058836,-3.7893338
2137,-0.88683987,3.5294135,-6.25424
2138,-1.1216356,3.7686956,-8.70479
2139,-0.939482,2.350649,-11.409576
2140,-2.0964117,1.5337993,-8.165807
2141,-2.0964117,1.5337993,-8.165807
2142,-2.7290142,1.0689936,-4.438686
2143,-2.242673,0.30269206,-1.4874383
2144,-2.137389,0.12053844,-1.247857
2145,-2.0198414,-0.4854439,-0.08584251
2146,-2.0892332,-0.55513483,0.021834506
2147,-2.1828525,-0.77796644,0.14177474
2148,-1.9887347,-0.77796644,0.2757728
2149,-1.6582261,-0.62931234,0.67118675
2150,-1.6582261,-0.62931234,0.67118675
2151,-1.6582261,-0.62931234,0.67118675
2152,-0.69272214,0.027218357,0.9945169
2153,-0.5419743,0.118145615,1.0351949
2154,-0.0317049,0.21864417,1.1907284
2155,1.8990039,-1.1300105,18.381065
2156,1.6163517,-3.592524,25.447668
2157,-3.95055,-8.117651,5.9769716
2158,-7.055238,-8.9057865,-10.997413
2159,1.6381862,-6.375975,-14.130815
2160,1.3818551,-6.579664,-15.508183
2161,2.021337,-8.120044,-5.511867
2162,2.021337,-8.120044,-5.511867
2163,2.021337,-8.120044,-5.511867
2164,-24.518356,-77.22297,78.709206
2165,-32.0713,-77.62795,77.921074
2166,4.814359,-16.437197,-34.784763
2167,2.6656044,-5.7604213,-23.664717
2168,2.6656044,-5.7604213,-23.664717
2169,1.5732809,-1.966003,-11.07159
2170,0.15523437,2.067997,-4.1126637
2171,-1.6319051,5.912665,-0.06430711
2172,-2.7481568,6.437291,1.8640088
2173,-0.70947194,7.3190465,14.749359
2174,-2.4224339,3.435794,6.5374904
2175,-3.1360931,3.0909286,4.7434716
2176,-8.576474,2.7532415,9.809975
2177,-6.0083776,-3.731607,3.0690942
2178,-6.0083776,-3.731607,3.0690942
2179,-5.716154,-4.433302,1.0854442
2180,7.6387873,-8.129615,17.714964
2181,8.932407,-8.797811,18.64936
2182,4.9319067,-5.810671,3.844967
2183,4.9319067,-5.810671,3.844967
2184,4.1964126,-5.1592245,3.231806
2185,-1.3396816,1.4979069,4.9734817
2186,-4.147061,2.2525434,7.383353
2187,-6.8204417,1.4237294,8.020442
2188,-6.06102,-1.8487546,7.1916285
2189,-6.216852,-2.4738796,7.41446
2190,-3.246462,-5.08744,8.087441
2191,-3.246462,-5.08744,8.087441
2192,-2.554039,-6.237191,7.071688
2193,-1.9815563,-6.1005015,6.341279
2194,-1.9815563,-6.1005015,6.341279
2195,-1.4617156,-5.7006006,8.957232
2196,-2.7888348,-4.761418,10.209875
2197,-2.7888348,-4.761418,10.209875
2198,-4.8562336,-2.5576284,7.4647093
2199,-5.526822,-0.4351946,6.6071815
2200,-5.6730833,-0.071186475,6.573682
