,ax,ay,az
501,-8.190632,-18.69602,-12.044272
502,-8.344071,-32.046177,24.415165
503,-3.545864,-43.947178,7.194021
504,-0.44117668,-44.421555,-11.4191475
505,9.078369,-39.441196,6.084948
506,8.417352,-37.72853,51.896435
507,-22.906193,-39.393337,13.700106
508,-8.832806,-25.446772,-3.2383864
509,-2.48704,-14.135001,-9.145667
510,-4.566403,-9.741779,-8.843872
511,-6.2407804,-5.5977097,-3.4803605
512,-6.5234327,-1.1012967,11.98505
513,-5.871987,1.3229318,18.0359
514,-4.4057846,1.4596218,9.857831
515,-2.9036903,0.59970117,2.1227329
516,-0.4531408,1.212862,1.0615159
517,3.135196,-0.028115666,6.6598234
518,0.9625129,-4.653741,11.2806635
519,-1.0184451,-7.5906315,12.404094
520,-2.3192434,-9.332008,10.313066
521,-1.4856437,-9.063713,9.6326065
522,-0.74536425,-8.038688,8.937791
523,-0.67118675,-6.148657,8.274381
524,-0.762114,-4.2056847,7.0863442
525,-1.1359925,-2.0234306,6.425028
526,-1.4665012,-0.31076783,6.9592257
527,-1.9839491,0.7408777,6.997511
528,-2.335993,0.27128628,6.250053
529,-2.7003005,-0.111864455,6.655038
530,-4.286144,-1.230509,7.697112
531,-4.8849473,-2.0832512,8.161918
532,-5.1029935,-3.566203,8.981161
533,-4.4967117,-4.045366,8.705687
534,-4.048955,-4.6202416,8.260024
535,-3.9768713,-4.5074797,8.255239
536,-3.938586,-4.2777686,8.32463
537,-3.7543387,-3.1779675,8.281559
538,-3.246462,-2.1529422,8.456534
539,-3.3110683,-2.0138593,8.743972
540,-3.6583266,-2.4906292,9.314062
541,-4.3986063,-2.44038,9.203693
542,-5.042874,-2.387738,9.223135
543,-5.2680984,-2.5959134,9.04816
544,-5.299205,-2.545664,8.976375
545,-5.1293144,-2.426023,8.909077
546,-5.069494,-2.5097718,8.57139
547,-4.319643,-2.2606192,8.499605
548,-3.9864426,-1.8293129,8.293523
549,-4.0441694,-1.8918254,8.909077
550,-4.8562336,-1.8005991,9.661321
551,-5.4909296,-2.0018952,9.697213
552,-6.235995,-2.2845473,9.752248
553,-5.9318075,-2.167299,9.661321
554,-5.895915,-1.9061823,10.11177
555,-6.0155563,-1.7001005,10.26491
556,-6.1642103,-1.6043876,9.943973
557,-5.948557,-1.6618153,9.357133
558,-6.0251274,-1.719243,9.41456
559,-5.59412,-1.4198412,9.474381
560,-5.452645,-1.3600205,10.008579
561,-5.517251,-1.4030914,10.322637
562,-5.9342003,-1.6689938,10.4566345
563,-6.3915286,-1.7862421,10.296316
564,-6.6984076,-1.8293129,9.759726
565,-6.858727,-1.7982062,9.886545
566,-6.794121,-1.7527425,10.217053
567,-6.494719,-1.5586249,10.425529
568,-6.159425,-1.4102699,10.427921
569,-5.7687964,-1.5011971,10.712966
570,-5.692226,-1.5777674,10.567004
571,-5.9318075,-1.5418751,10.610075
572,-5.979664,-1.6378871,10.837692
573,-6.2144594,-2.006681,10.746466
574,-6.3747787,-2.0952153,10.313066
575,-6.2048883,-2.1361923,10.389636
576,-6.017949,-2.044966,10.15484
577,-6.053841,-1.87029,9.989436
578,-5.8624153,-1.7694924,10.085448
579,-5.622834,-1.6546369,9.582357
580,-5.6443696,-1.5634105,9.201301
581,-5.5507503,-1.7623138,8.940184
582,-5.388038,-1.9444675,8.86122
583,-5.3473606,-2.1218355,8.942576
584,-5.2441697,-2.2534406,8.935398
585,-5.009374,-2.2295125,8.844471
586,-4.7674,-2.265405,9.103194
587,-4.6836514,-2.2031915,9.455238
588,-4.714758,-2.11705,9.728319
589,-4.5999026,-2.0832512,9.450453
590,-4.6094737,-2.059323,9.737891
591,-4.82752,-2.0521445,10.13809
592,-4.4967117,-1.7766708,9.778868
593,-3.830909,-1.4844474,9.716355
594,-4.048955,-1.7718852,8.794222
595,-4.2188454,-2.5193431,8.8085785
596,-4.034598,-3.3026934,8.700901
597,-3.7061832,-4.1482573,8.638389
598,-3.802195,-5.358128,7.2299137
599,-4.221238,-6.58445,6.6622167
600,-5.4981084,-8.222935,4.796114
601,-6.1208405,-10.153943,3.03051
602,-6.8539414,-12.4319105,1.0710872
603,-9.177671,-19.364515,-0.92662054
604,-8.310572,-23.635704,-3.013162
605,-6.343672,-24.124437,-4.980062
606,-3.9194436,-22.035503,-4.520042
607,-4.4656053,-25.115963,-3.4564323
608,-5.1532426,-27.35116,-3.6816568
609,-5.9988065,-28.728527,-3.8682969
610,-6.849156,-28.297222,-2.8600214
611,-6.070591,-25.15694,-1.262214
612,-3.4764721,-20.890537,0.21834506
613,-1.3779668,-15.869499,6.6598234
614,0.33020952,-8.908179,18.836
615,1.0582259,-2.0306091,27.241987
616,1.5661024,-1.8460627,15.324234
617,-0.20877378,-4.7398825,2.0964117
618,-1.3325031,-6.067002,-4.194319
619,0.0065802624,-5.0659046,-4.345067
620,1.3217354,-3.9637108,-2.9318058
621,-1.9384855,-2.1385853,9.107981
622,-5.232206,-1.7168503,8.470891
623,-5.2202415,-1.5900307,2.335993
624,-2.4008985,-0.61734825,-0.4956134
625,-1.11685,0.26889345,-1.9830518
626,-0.005383851,0.5300102,-1.8705891
627,-0.13459627,0.9062816,-1.6860427
628,-0.24735804,1.0163515,-2.1460629
629,-0.20877378,1.1602199,-2.4933212
630,0.20309082,1.157827,-2.5387847
631,0.2222334,1.2200404,-2.1604197
632,0.30388847,1.198505,-1.5544374
633,0.15044872,1.1147562,-0.79740816
634,0.12412767,1.0331012,-0.90029955
635,0.07148558,1.0139586,-1.3627125
636,0.0017946169,1.3277174,-2.376073
637,-0.26889345,1.4596218,-3.4396825
638,-0.2425724,1.8475581,-5.3967123
639,0.06430711,1.4620147,-5.118846
640,-0.19202402,0.81266236,-4.503292
641,-0.6831509,0.39840496,-4.328317
642,-1.3683954,0.3385844,-3.4851463
643,-1.6630118,0.25932217,-2.606083
644,-1.7970098,0.20668006,-1.7700906
645,-1.8930218,0.09421739,-0.9939187
646,-1.9097716,-0.035294134,-0.8572287
647,-1.9336998,-0.054436713,-0.8117651
648,-1.8547367,-0.13579269,-0.8787641
649,-1.6366907,-0.2533401,-0.76630145
650,-1.3181462,-0.31076783,-0.7615158
651,-1.2221341,-0.34666017,-0.6774679
652,-0.8150552,-0.28923243,-0.40917268
653,-0.6520442,-0.4423731,-0.22013968
654,-1.6103697,-2.248655,44.841797
655,-6.0394845,-9.30808,26.894728
656,-7.927122,-12.609278,-8.187641
657,-1.7946169,-10.532308,-14.22892
658,-1.6606189,-11.509776,-9.301499
659,-9.026625,-24.421448,8.238488
660,-13.999807,-62.011494,49.026543
661,-18.850657,-77.57023,51.237812
662,-7.43121,-72.73852,16.263418
663,4.1605206,-33.569805,-15.290136
664,-2.2211375,-16.118652,-13.47189
665,-6.152246,-7.1018977,-11.866905
666,-7.0337024,-4.066901,-8.613862
667,-6.154639,0.9732806,1.1213365
668,-5.675476,3.1579278,3.464209
669,-3.694219,5.0599227,4.2858443
670,-2.3431716,5.639584,7.416853
671,-0.695115,5.0072803,12.083157
672,-0.56111693,2.4032912,11.800504
673,-0.0077766734,1.2104691,15.824932
674,-2.2139592,-0.94785684,5.8334026
675,-2.8677979,-4.342375,4.712365
676,0.054735817,-8.175078,8.710473
677,4.014259,-12.396018,10.562219
678,2.7975087,-11.363515,9.086445
679,-0.34067813,-9.102298,10.221839
680,-4.1662035,-4.941179,10.176375
681,-3.5027933,-2.483451,9.227921
682,-2.0461624,1.2990036,5.725426
683,-3.3397822,2.9542387,5.215456
684,-4.7195435,3.112464,6.3197436
685,-5.215456,-0.0065802624,8.41795
686,-4.374678,-2.3012972,9.795618
687,-3.641577,-3.501597,9.18455
688,-3.1456645,-4.1219363,8.6961155
689,-3.8668015,-3.7962132,9.958329
690,-3.478865,-3.3026934,8.1738825
691,-3.05713,-2.9048867,9.026625
692,-3.2177482,-2.2390838,8.703294
693,-3.1767712,-1.434198,8.674281
694,-3.6487553,-1.082154,9.206086
695,-4.7339005,-1.1659029,8.899506
696,-5.272884,-1.1802598,9.062516
697,-5.6276197,-1.5323038,9.072088
698,-5.716154,-1.6737795,9.50818
699,-5.8911295,-2.0952153,9.793225
700,-6.1642103,-2.3347967,9.232706
701,-6.5018973,-2.018645,9.208479
702,-6.470791,-1.4054842,9.148658
703,-6.372386,-1.07019,9.251849
704,-6.0155563,-0.8641081,8.842078
705,-5.361717,-0.66041905,8.590532
706,-5.2537413,-0.89760756,8.722437
707,-5.476573,-1.1994023,9.582357
708,-5.675476,-1.6211374,10.461421
709,-5.8046885,-1.7647067,10.4016
710,-6.096912,-1.7383857,10.121341
711,-6.530611,-1.7264216,10.114162
712,-6.7343,-1.5131612,9.991829
713,-6.5641108,-1.4365909,9.7908325
714,-6.2120667,-1.4940187,9.987043
715,-6.195317,-1.7096717,10.4016
716,-6.3341007,-1.8221345,10.593325
717,-6.422934,-1.9325033,10.521241
718,-6.5090756,-1.8990039,10.653146
719,-6.6358953,-1.9420747,10.909476
720,-6.3795643,-1.8870398,10.986047
721,-6.300601,-1.9348962,10.911869
722,-6.4444695,-1.8607187,10.813464
723,-6.547361,-1.841277,10.686645
724,-6.6335025,-1.8678972,10.526027
725,-6.858727,-1.814956,10.562219
726,-6.8467627,-1.7120646,10.221839
727,-6.6358953,-1.6857436,9.965508
728,-6.451648,-1.7288144,10.071092
729,-6.0777693,-1.8798612,9.680463
730,-6.04427,-1.7312071,9.314062
731,-6.2790656,-1.5948163,9.428918
732,-5.938986,-1.6211374,9.378669
733,-5.6994042,-1.6402799,9.393025
734,-5.4095736,-1.8388842,9.431311
735,-5.1867423,-1.9396819,8.775079
736,-4.9663033,-2.059323,8.379665
737,-4.894519,-2.1095722,8.003693
738,-4.8035913,-2.495415,7.9295154
739,-4.7434716,-2.8474588,7.89123
740,-4.2885365,-3.3338,7.467102
741,-3.897908,-3.932604,8.423035
742,-4.4129634,-4.4452662,9.179765
743,-4.482355,-4.6154556,8.612068
744,-4.5616174,-4.0764723,9.273384
745,-5.091029,-2.751746,10.121341
746,-5.1293144,-2.0401804,10.931012
747,-4.664509,-1.4796617,10.7177515
748,-4.2020955,-1.6139588,9.869795
749,-4.008277,-2.7852457,9.49143
750,-3.3876386,-3.757928,9.541679
751,-3.0619156,-4.6154556,6.5422764
752,-2.6811578,-5.382056,8.140083
753,-2.9279177,-6.9678993,8.4012
754,-3.481258,-8.673384,6.966404
755,-4.2164526,-11.600703,2.8462625
756,-5.0742793,-12.0894375,-0.10737792
757,-6.381957,-14.638093,-5.2193446
758,-6.561718,-17.23251,-8.525328
759,-2.3048863,-19.721346,-5.135596
760,-3.6750765,-21.496521,-4.7141595
761,-5.1771708,-31.617561,-2.7376883
762,-7.0504518,-36.171402,-3.7797625
763,-8.082955,-34.72195,-4.4192443
764,-6.1064835,-28.2709,-4.8433723
765,-3.8620157,-22.385155,-3.5401812
766,-0.12502499,-15.28266,0.18005991
767,3.786941,-8.500801,16.636997
768,5.1140604,-1.2855439,28.161728
769,3.8347974,-2.5097718,13.54218
770,1.5421742,-6.6538415,1.0902299
771,0.27726832,-6.270691,0.057726845
772,-3.5123646,-4.4811587,9.357133
773,-13.041482,-3.6427734,21.603
774,-13.52543,-4.0908294,10.763215
775,-5.869594,-4.680062,-1.8873389
776,-1.4210376,-3.81057,-6.5512495
777,-0.08673982,-2.6536403,-6.02423
778,0.31585258,-1.8726828,-5.0303116
779,0.27966115,-0.23629123,-3.4779677
780,0.12891331,0.8246265,-2.5821548
781,0.22941187,1.3444673,-2.0551355
782,0.22701904,1.837987,-1.6836498
783,0.69182485,2.0440688,-1.6166508
784,0.09302098,2.3195424,-1.884946
785,0.14327025,2.5926232,-2.4263222
786,0.26051855,2.516053,-3.1833515
787,0.0041874396,2.9183464,-4.5415773
788,-0.7190432,3.0095727,-6.858129
789,-1.2077773,3.2129626,-6.0580287
790,-1.0256236,2.408077,-4.3522453
791,-0.8222337,1.5481563,-4.409673
792,-0.28085756,0.63798636,-4.7309093
793,-0.22791636,0.30269206,-4.2373896
794,-0.5778667,-0.111864455,-2.7472596
795,-0.9418748,-0.4543372,-1.4392828
796,-1.0232308,-0.56470615,-0.7088737
797,-1.1599208,-0.7851449,0.048155557
798,-1.3803595,-1.1419746,0.03379862
799,-1.7156538,-1.6354942,-0.030807592
800,-1.8882362,-1.7336,-0.100199446
801,-1.6845472,-1.5777674,-0.16749759
802,-0.45074797,-0.6652047,-0.11694921
803,-0.10827523,-0.34426737,0.26141587
804,0.9457632,-1.0172487,29.350063
805,-0.8700901,-7.3773713,47.625248
806,-11.532508,-16.104294,15.2165575
807,-8.966804,-14.841782,-15.838692
808,0.32542387,-8.642277,-21.209381
809,7.138089,-7.434799,-16.308283
810,2.481357,-7.346265,-7.873583
811,-1.6079768,-12.010175,-3.8204405
812,-14.133805,-27.569204,9.548858
813,-14.375779,-77.65906,78.709206
814,-39.317963,-77.65906,18.347567
815,4.028616,-45.78457,-23.09702
816,4.692325,-25.24069,-25.705795
817,0.06909275,-11.830713,-22.862225
818,-0.0077766734,-4.6082773,-10.575678
819,-2.2857437,1.186541,5.4236317
820,-2.8510482,6.439684,21.995724
821,-1.34686,6.6146593,16.53889
822,-4.065705,4.715057,-1.2430713
823,-4.755436,4.2598224,-2.37368
824,-4.281358,3.8790646,4.024728
825,-1.9624137,6.5165534,11.402996
826,3.2766714,6.815955,12.262917
827,2.6751757,0.89431745,8.176275
828,8.469994,-6.467201,12.8354
829,8.496315,-10.362119,13.781761
830,4.773681,-9.646067,12.34188
831,0.5288138,-2.004288,8.181061
832,-0.30717862,4.281358,5.3255258
833,-1.1288141,4.645665,5.7783675
834,-1.4330016,1.306182,7.3399835
835,-3.4426737,-2.6341987,9.570394
836,-5.1699924,-4.519444,10.114162
837,-6.142675,-5.0105705,10.051949
838,-6.940382,-5.195117,9.079267
839,-6.9332037,-4.833502,8.283952
840,-6.3747787,-4.1482573,8.0348
841,-4.228417,-2.6656044,8.003693
842,-2.4391835,-1.7838492,9.060123
843,-1.9002002,-1.8197416,9.701999
844,-3.164807,-1.4365909,10.0830555
845,-4.415356,-1.3289139,10.178768
846,-5.246563,-1.4581263,9.812367
847,-6.04427,-1.4724833,8.78465
848,-6.2264237,-1.3094722,8.846864
849,-5.8597236,-1.0725827,8.645567
850,-5.6204414,-0.9957133,9.210872
851,-5.514858,-0.87607217,9.225528
852,-5.598906,-0.5910272,9.539287
853,-6.463612,-0.634098,9.661321
854,-6.897012,-0.57906306,9.189336
855,-7.0672016,-0.6628119,9.060123
856,-6.8467627,-0.7465607,9.44806
857,-6.6335025,-0.78753775,10.008579
858,-6.5497537,-0.9167502,10.523634
859,-6.5401826,-0.8880363,10.957334
860,-6.6622167,-0.87367934,11.304591
861,-6.8276205,-0.87607217,11.189736
862,-6.9355965,-0.9382856,10.6770735
863,-6.8371916,-0.9981061,10.427921
864,-6.7725854,-1.0773684,10.569397
865,-6.8252273,-1.2927225,10.959726
866,-6.8467627,-1.5083755,11.2352
867,-6.849156,-1.6067804,10.86162
868,-6.9882383,-1.6067804,10.777573
869,-6.98106,-1.6450655,10.919048
870,-6.8778696,-1.6570296,10.614861
871,-7.0169525,-1.719243,10.444671
872,-7.112665,-1.8005991,10.2361965
873,-7.038488,-1.9325033,10.329815
874,-6.849156,-2.0353947,10.193126
875,-6.6888366,-1.9995024,9.977472
876,-6.4157557,-1.8846469,9.900902
877,-6.1378894,-1.82692,10.010972
878,-5.7927246,-1.7886349,10.173983
879,-5.668298,-1.7359928,9.673285
880,-5.469394,-1.5490535,8.925827
881,-5.352146,-1.4318053,9.292527
882,-5.395217,-1.2065809,9.026625
883,-5.2274203,-1.1515459,8.482856
884,-4.9878387,-1.2783655,8.116156
885,-4.88734,-1.5346966,8.415557
886,-4.4057846,-1.8726828,7.689934
887,-4.4321055,-2.4332016,8.655139
888,-4.0585265,-3.1133614,6.9376903
889,-3.8835511,-3.5422747,7.7186475
890,-3.8500516,-3.9493537,8.415557
891,-3.6511483,-4.3734818,8.058727
892,-3.6990047,-4.744668,8.516355
893,-3.912265,-4.3064823,9.127123
894,-3.8787656,-3.8344984,9.155837
895,-4.115954,-3.2596226,10.140483
896,-3.8213377,-2.4906292,10.403993
897,-3.842873,-2.0784655,10.4566345
898,-3.481258,-1.9061823,10.284053
899,-2.9997022,-2.004288,10.022936
900,-2.4894328,-2.6126633,9.251849
901,-2.2618155,-3.7746778,9.512965
902,-2.8295128,-5.101797,6.9041905
903,-3.8237305,-5.8683977,4.336094
904,-3.234498,-7.001399,4.532604
905,-3.5099716,-7.8349986,0.8769695
906,-3.6511483,-7.7871423,-2.80708
907,-6.2288165,-13.651352,-4.7524447
908,-8.423035,-17.270796,-8.65454
909,-4.8849473,-22.639093,-6.2327046
910,-8.645866,-36.834812,-8.038987
911,-10.698908,-46.131824,-6.896414
912,-11.450852,-46.012184,-6.8389864
913,-6.8276205,-36.564125,-5.0255256
914,-3.679862,-27.540491,-3.8108692
915,0.0041874396,-17.898314,-0.8237292
916,0.8380861,-15.023935,1.3561323
917,2.2058833,-4.1841493,29.601608
918,1.1255239,-1.1946167,24.072693
919,1.2523435,-1.7934206,16.119549
920,0.41874397,-3.1229327,6.8467627
921,-0.77407813,-2.7589245,5.0141597
922,-3.6176488,-1.8293129,7.179664
923,-7.201499,-2.0928226,10.190733
924,-6.834799,-2.7589245,5.608178
925,-4.099204,-2.900101,-0.5099703
926,-1.6175481,-2.821138,-2.3162522
927,0.67028946,-1.6163517,-4.1222353
928,1.803291,-0.5240282,-3.6577284
929,2.2034905,0.034396827,-2.2202404
930,2.1939192,0.68823564,-1.7315062
931,1.8224336,0.750449,-1.5783657
932,1.7482561,0.7193423,-1.1853445
933,1.9830518,0.65952176,-0.718445
934,1.8750757,0.9445667,-1.0322039
935,1.7123637,1.1793624,-1.8227327
936,2.239383,1.646561,-3.2383864
937,2.359024,1.9363917,-4.6061835
938,2.2178476,2.528017,-6.000302
939,1.340878,2.4514468,-6.2231336
940,0.8811569,2.0871396,-7.4449687
941,0.9696914,1.5409778,-8.882157
942,1.0845468,1.2463615,-8.170592
943,0.6152545,1.0139586,-6.762117
944,-0.5276174,0.38165522,-4.1632123
945,-1.183849,0.041575294,-2.3641088
946,-2.0557337,-0.18843478,-1.3866407
947,-2.4391835,-0.2653042,-0.474078
948,-2.5707889,-0.38255253,0.10797612
949,-2.5731816,-0.57188463,0.58235323
950,-2.5468607,-0.6628119,0.7429714
951,-2.4535406,-0.7178468,0.8913264
952,-2.1828525,-0.7851449,0.79800636
953,-1.7371893,-0.6436693,0.99690974
954,-1.3034902,-0.74177504,1.835295
955,2.6009982,-3.633202,39.839897
956,-1.998306,-11.363515,38.486458
957,-15.21895,-13.483556,-18.531216
958,-6.849156,-14.333905,-16.083057
959,-5.38086,-14.319548,-14.7870455
960,-10.789836,-24.021248,-2.1364915
961,-16.467106,-49.885567,19.535603
962,-6.329315,-75.4457,45.572205
963,-10.629217,-68.3094,38.344982
964,-9.050552,-42.92664,4.2427735
965,-3.19382,-23.808287,-16.777874
966,0.8210373,-14.899209,-22.553251
967,-3.5817564,-8.239685,-11.807084
968,-6.2264237,-3.7292142,-4.261318
969,-6.0251274,-0.34187454,4.156632
970,-3.519543,3.1004999,11.036296
971,-2.9973094,1.634597,7.538887
972,-2.6691937,1.0187442,6.5111694
973,-2.1900308,0.26171497,8.039585
974,-0.41964126,-0.9382856,9.24467
975,3.1112676,-0.0735793,5.3614182
976,2.6751757,-5.413163,5.5483575
977,5.006084,-8.853145,10.468599
978,6.1534424,-12.474981,10.035199
979,5.0970116,-12.726526,11.340484
980,0.68464637,-10.755139,12.171989
981,-2.7266214,-8.254042,11.084152
982,-3.1767712,-5.3294144,7.5029945
983,-2.2594228,-2.0234306,5.347061
984,-1.698904,0.8006983,4.779364
985,-1.2987045,2.53041,5.3039904
986,-1.250848,2.3721845,5.90758
987,-2.1541386,-0.5383851,7.620542
988,-2.882155,-3.2045877,9.366704
989,-3.3517463,-3.9951165,9.92483
990,-3.9720855,-3.6690943,9.7812605
991,-4.415356,-2.7996025,8.11137
992,-4.41057,-2.196013,7.5532436
993,-3.670291,-2.30369,7.697112
994,-3.0068808,-2.6413772,7.589136
995,-2.7912276,-2.8570302,7.9055867
996,-3.0068808,-3.170789,8.810971
997,-3.4860435,-2.6703901,9.275777
998,-4.2044883,-2.1119652,8.880363
999,-4.5975094,-1.8340986,8.626425
1000,-4.731508,-1.5203397,8.52114
1001,-4.671687,-1.2951152,8.58814
1002,-4.575974,-1.6139588,8.715259
1003,-3.9074793,-2.0545373,8.923434
1004,-4.1231327,-2.0760727,9.105587
1005,-5.0572305,-2.3587248,8.770293
1006,-5.4167523,-2.05693,9.072088
1007,-5.749654,-1.9061823,8.652746
1008,-5.8911295,-2.0114665,8.966804
1009,-6.2958155,-2.0234306,9.029017
1010,-6.1857457,-1.8918254,9.093623
1011,-6.0729837,-1.8774685,9.167801
1012,-5.8334026,-1.6809579,9.153444
1013,-5.5076795,-1.5179468,9.32124
1014,-5.4239306,-1.3815559,9.270991
1015,-5.3473606,-1.1802598,9.426525
1016,-5.2944193,-1.1515459,9.771689
1017,-5.6060843,-1.4461622,10.106984
1018,-5.8863435,-1.6833507,10.346565
1019,-6.1184473,-1.7958134,10.487741
1020,-6.4492555,-1.6689938,10.389636
1021,-6.5282183,-1.4724833,10.370493
1022,-6.3125653,-1.1826526,10.240982
1023,-6.058627,-1.3480564,10.686645
1024,-5.960521,-1.585245,11.204093
1025,-6.108876,-1.6498512,11.187344
1026,-6.3125653,-1.7766708,11.395818
1027,-6.53779,-1.7790636,11.187344
1028,-6.611967,-1.6163517,10.77518
1029,-6.5497537,-1.4006985,10.176375
1030,-6.6239314,-1.5466608,10.372886
1031,-6.578468,-1.6522441,10.169197
1032,-6.5832534,-1.6354942,9.982258
1033,-6.573682,-1.6713866,10.068699
1034,-6.3867426,-1.6881363,9.67807
1035,-6.329315,-1.6642082,9.733106
1036,-6.1642103,-1.6905292,9.733106
1037,-5.8214383,-1.6378871,9.740284
1038,-5.7137613,-1.6546369,9.718748
1039,-5.598906,-1.5777674,9.853045
1040,-5.3449674,-1.4294125,9.501001
1041,-5.028517,-1.2161521,8.846864
1042,-4.7195435,-1.0845468,8.667103
1043,-4.8059845,-1.4030914,8.525927
1044,-4.6956153,-1.7934206,8.770293
1045,-4.525725,-2.1601207,8.597711
1046,-4.2909293,-2.9530423,8.640781
1047,-4.415356,-3.4486556,8.607282
1048,-4.377071,-3.8967116,8.63121
1049,-4.549653,-3.9852462,8.777472
1050,-4.7988057,-3.7866418,8.576176
1051,-5.0309095,-3.5207393,8.858828
1052,-5.131707,-2.9913275,8.880363
1053,-5.201099,-2.2845473,9.112766
1054,-5.239384,-1.8870398,9.872188
1055,-4.92084,-1.8798612,9.697213
1056,-4.334,-2.126621,9.4839525
1057,-3.9768713,-2.7493532,9.438489
1058,-3.6870406,-3.4776685,9.71157
1059,-3.493222,-4.711169,8.501998
1060,-2.5636103,-5.6240306,6.61436
1061,-2.0485554,-6.555736,5.9769716
1062,-1.7730815,-8.002795,5.790332
1063,-2.9973094,-10.326226,5.938687
1064,-4.566403,-11.698809,6.561718
1065,-6.741479,-14.72214,3.2581272
1066,-7.606185,-17.00968,-0.13369897
1067,-5.0165524,-18.945173,-0.799801
1068,-3.4597225,-19.074684,-3.0849466
1069,-3.0403802,-20.634207,-4.2110686
1070,-3.2584262,-25.937899,-4.4434714
1071,-6.159425,-30.597023,-5.1140604
1072,-7.1342006,-31.205399,-6.8171515
1073,-6.135496,-27.739096,-5.401498
1074,-5.131707,-24.086153,-3.6290147
1075,-3.409174,-19.254446,-2.2585254
1076,-1.0304092,-14.465809,1.7706888
1077,0.92662054,-9.202796,10.74168
1078,1.9878374,-3.9014974,22.661825
1079,2.167299,-1.9755741,23.974586
1080,1.3794622,-4.1841493,9.857831
1081,0.29910284,-5.7723856,1.8879371
1082,0.30867413,-5.53759,0.75493556
1083,-0.4124628,-4.1578283,2.755036
1084,-6.7678,-4.9459643,16.19881
1085,-7.3953176,-3.8991046,6.655038
1086,-8.145168,-4.330411,-2.9533412
1087,-6.216852,-4.275376,-3.3460634
1088,-5.1029935,-3.0032916,-3.758227
1089,-2.635395,-1.6043876,-3.324528
1090,-0.5778667,-0.32273194,-2.7352953
1091,-0.036490545,0.64037913,-2.1556342
1092,-0.11784652,1.3253247,-1.7291135
1093,-0.28803602,1.6127625,-2.0165513
1094,-0.7046863,1.6800606,-2.9533412
1095,-0.73340017,1.7231314,-3.2862427
1096,-0.8964112,1.6369898,-2.9485557
1097,-0.7959126,1.6680965,-2.2899313
1098,-0.80787677,1.7207385,-1.463211
1099,-1.1575279,1.809273,-1.7147565
1100,-1.5840486,2.355435,-3.9284165
1101,-1.6295122,2.678765,-5.446962
1102,-0.5491528,2.7675984,-5.3392844
1103,-0.56829536,2.3578277,-3.3607194
1104,-1.1072787,1.550549,-2.8695927
1105,-1.2269198,1.0713863,-2.658725
1106,-1.5000007,0.4941179,-2.0934207
1107,-1.3229318,0.122931264,-1.3363914
1108,-1.1431711,-0.13339986,-0.8117651
1109,-0.9921241,-0.2219343,-0.5243273
1110,-0.965803,-0.23389842,-0.50039905
1111,-0.9490533,-0.32033914,-0.78783685
1112,-1.006481,-0.36340994,-0.94337034
1113,-1.0809577,-0.3610171,-0.6559325
1114,-0.79112697,-0.25812575,-0.11934203
1115,-0.3598207,-0.071186475,0.14416756
1116,5.279165,-1.6737795,59.693745
1117,-2.3913271,-9.607781,49.22066
1118,-13.582858,-13.34208,-14.732011
1119,-2.6883361,-10.136894,-15.584753
1120,7.2963142,-4.735097,-15.572789
1121,6.2398834,-4.555635,-9.006884
1122,1.9567307,-8.920144,-5.061418
1123,-13.546966,-46.170113,14.8378935
1124,-15.803697,-77.65906,78.709206
1125,-36.050266,-77.65667,16.074085
1126,-3.8620157,-51.81867,-20.124237
1127,-1.049851,-21.860529,-30.403503
1128,-1.8041883,-7.69113,-16.717754
1129,-4.3531427,-3.2309089,-9.617652
1130,-8.169097,1.076172,1.8807586
1131,-6.25753,4.621737,6.4345994
1132,-4.132704,5.7355957,4.0941195
1133,-4.1757746,5.987141,1.5071791
1134,-4.583153,6.166603,3.2389846
1135,-2.1804597,5.759524,11.88186
1136,-2.4296124,4.60738,14.883656
1137,-1.8906289,3.737589,14.749359
1138,-2.784049,-1.3480564,9.256635
1139,0.28923243,-7.7775707,4.944768
1140,9.109476,-12.911073,8.810971
1141,9.066405,-13.6657095,12.298809
1142,4.0528436,-9.1669035,13.621143
1143,1.0031909,-2.7948167,10.413564
1144,0.37088752,2.9327033,5.1361938
1145,1.0438689,6.562017,2.8342984
1146,-0.12502499,5.65424,3.2748768
1147,-2.774478,0.9445667,7.0525455
1148,-3.7208393,-3.283551,10.75843
1149,-4.424927,-5.8489556,10.787144
1150,-5.407181,-6.5461645,9.876974
1151,-6.873084,-6.007181,9.522537
1152,-6.889834,-4.8239303,10.022936
1153,-5.668298,-3.513561,8.585747
1154,-2.745764,-2.4284158,7.50778
1155,-1.0136595,-1.8125632,8.267202
1156,-0.8676973,-2.1242282,8.760722
1157,-2.0820549,-2.3829522,9.210872
1158,-4.2451663,-2.3300111,9.424132
1159,-5.4909296,-2.0425732,9.1103735
1160,-5.4933224,-1.937289,9.235099
1161,-5.7113686,-2.0282164,9.134301
1162,-5.658726,-1.5828521,9.357133
1163,-4.875376,-1.2879368,9.455238
1164,-5.023731,-1.3289139,9.342776
1165,-5.388038,-1.5681962,9.273384
1166,-5.462216,-1.5610176,9.673285
1167,-5.553143,-1.5586249,10.047163
1168,-5.514858,-1.556232,10.140483
1169,-5.6706905,-1.6043876,10.387243
1170,-5.953343,-1.489233,10.269695
1171,-6.209674,-1.3695918,10.533205
1172,-6.652645,-1.2807583,10.425529
1173,-6.588039,-1.1874382,10.133305
1174,-6.494719,-1.3504493,10.614861
1175,-6.3604217,-1.5876378,11.076974
1176,-6.3891354,-1.7623138,11.072188
1177,-6.7725854,-1.8535402,10.921441
1178,-6.9451675,-1.8559331,10.684252
1179,-6.803692,-1.8535402,10.197911
1180,-6.544968,-1.8822541,10.339387
1181,-6.3771715,-1.9588244,10.2673025
1182,-6.3604217,-1.9971097,10.387243
1183,-6.3795643,-2.0952153,10.240982
1184,-6.50429,-2.169692,10.430314
1185,-6.425327,-2.2103698,10.729716
1186,-6.2527447,-2.2821546,10.705788
1187,-5.960521,-2.2319052,10.288838
1188,-5.7257257,-2.07368,9.838689
1189,-5.5965133,-1.8655044,9.642178
1190,-5.529215,-1.8436699,9.431311
1191,-5.577071,-1.7312071,9.131908
1192,-5.529215,-1.6163517,9.069695
1193,-5.1556354,-1.6019948,8.55464
1194,-4.853841,-1.8726828,8.628818
1195,-4.765007,-1.9731814,8.485249
1196,-4.237988,-2.7900312,8.221739
1197,-4.269394,-3.075076,8.23131
1198,-4.2909293,-3.5039897,8.640781
1199,-4.2646084,-3.6978083,8.803793
1200,-4.252345,-3.8416767,9.910473
1201,-3.790231,-4.0310087,8.154739
1202,-3.2105699,-3.9780676,8.439785
1203,-3.354139,-3.8584266,8.633603
1204,-3.5243287,-3.4800615,8.732008
1205,-3.8787656,-3.0272198,10.051949
1206,-3.8763726,-2.3778675,10.394422
1207,-3.6726837,-1.9683957,9.654142
1208,-3.0643084,-1.6881363,9.122337
1209,-2.6715865,-1.8655044,9.735498
1210,-2.2785654,-2.2845473,10.89512
1211,-1.8547367,-2.7493532,11.968301
1212,-1.3106686,-3.5159538,9.309277
1213,-0.5132605,-4.8382874,7.220342
1214,-1.7802601,-6.673283,8.940184
1215,-3.3326037,-8.120044,5.306383
1216,-4.1757746,-9.931111,8.58814
1217,-5.2896338,-10.762318,3.2006993
1218,-6.053841,-12.2019,0.46031925
1219,-6.1474605,-13.299009,-4.613362
1220,-6.897012,-15.114862,-6.8892355
1221,-6.422934,-19.891535,-5.6578293
1222,-5.79751,-25.36033,-3.4660037
1223,-9.060123,-35.756847,-5.4684973
1224,-8.387142,-38.74638,-4.699803
1225,-4.7578287,-32.544483,-4.2182474
1226,-3.5937204,-26.34019,-4.364209
1227,-3.1456645,-20.81367,-3.367898
1228,-1.7084754,-15.285052,-1.0944172
1229,0.974477,-9.900004,6.9735823
1230,5.6482577,-1.719243,28.068407
1231,4.5245285,-2.0497518,25.035805
1232,1.6429719,-6.5629144,8.78465
1233,0.37088752,-7.6337023,2.8606195
1234,-0.084346995,-5.408377,7.500602
1235,-11.129915,-5.9641104,22.201805
1236,-10.818549,-5.9880385,5.7687964
1237,-7.2756763,-5.817849,-1.4033905
1238,-3.7304106,-5.3533425,-6.6424756
1239,-2.2929223,-3.6116667,-8.73141
1240,-1.1742777,-2.6485555,-7.1021967
1241,-0.9083753,-1.1084751,-6.153742
1242,-0.6089734,0.46301118,-4.7691946
1243,-0.23988047,1.6369898,-3.3053854
1244,-0.56111693,2.1999013,-2.2752752
1245,-0.6759724,2.161317,-2.141277
1246,0.04755735,2.5040889,-0.8787641
1247,0.26291138,2.9111679,-0.9771689
1248,0.44985065,3.263511,-1.6214365
1249,0.26051855,3.4453654,-3.367898
1250,-1.5023935,2.9880373,-5.281857
1251,-1.2340983,2.9590242,-5.839983
1252,-1.8954146,3.5533416,-5.051847
1253,-1.8810577,3.6203406,-6.0460644
1254,0.40677986,2.3961127,-4.982455
1255,0.04755735,0.78394854,-3.923631
1256,-0.2976073,0.13250256,-3.1689944
1257,-0.45074797,-0.5814559,-1.5855441
1258,-0.49381876,-0.81625164,-1.0537393
1259,-0.80548394,-0.77796644,-0.6750751
1260,-0.8700901,-0.6795616,-0.3684947
1261,-0.9131609,-0.6556334,-0.28713873
1262,-1.0809577,-0.76570326,-0.4334
1263,-1.4330016,-0.98853487,-0.50039905
1264,-1.4162519,-0.93589276,-0.38285163
1265,-0.939482,-0.6197411,-0.20578274
1266,-0.67118675,-0.28205398,0.1274178
1267,-0.32632118,-0.22432712,33.90869
1268,-8.0614195,-12.800704,33.79832
1269,-12.356536,-14.38894,-23.08027
1270,1.8224336,-8.093722,-17.254345
1271,1.9471594,-6.186942,-12.281462
1272,5.473283,-7.8613195,-7.411469
1273,-2.9614172,-18.485453,-5.7631135
1274,-6.1905313,-24.037996,-5.4206405
1275,-7.687541,-77.57501,78.709206
1276,-12.890734,-74.93064,7.764111
1277,-5.0742793,-40.265224,-14.592928
1278,-1.9049859,-17.90579,-29.291739
1279,-2.8031917,-6.78096,-20.46671
1280,-4.942375,-1.6905292,-5.6243296
1281,-5.028517,0.75284183,4.2260237
1282,-4.4727836,3.7423747,11.412567
1283,-2.3431716,3.8096728,9.304491
1284,-1.591227,2.8657043,3.7588253
1285,-1.7060826,4.1330028,1.5741782
1286,-0.8102696,4.851747,10.071092
1287,1.0007981,6.7055864,10.022936
1288,-0.17766708,2.2932215,7.5053873
1289,2.318346,-5.535197,7.220342
1290,7.3250284,-9.068499,9.675677
1291,6.2231336,-12.295519,11.290235
1292,1.9423738,-10.546665,11.594422
1293,-1.4330016,-7.9354973,10.712966
1294,-2.6210382,-4.3926244,8.655139
1295,-2.1589243,-0.6867401,6.547361
1296,0.6152545,5.7355957,4.2978086
1297,-1.3707882,3.5365918,6.9472613
1298,-3.2105699,-0.6628119,10.744073
1299,-4.1350965,-3.388835,10.885549
1300,-4.9399824,-5.101797,9.656535
1301,-5.3159547,-5.2334023,8.200203
1302,-5.7209396,-4.3184466,7.941479
1303,-5.445466,-3.539882,7.8406816
1304,-4.080062,-3.2979078,8.248059
1305,-2.364707,-2.885744,9.235099
1306,-2.1589243,-2.184049,9.186943
1307,-2.800799,-1.6235301,9.052945
1308,-3.9963129,-1.3217354,9.107981
1309,-3.99392,-0.97896355,9.249456
1310,-4.1350965,-0.5455636,8.971589
1311,-4.4799623,-0.6580262,9.033803
1312,-5.1388855,-1.218545,9.692428
1313,-5.2848477,-1.6881363,9.630214
1314,-5.759225,-1.7431713,9.728319
1315,-6.5521464,-1.5876378,9.788439
1316,-6.571289,-1.0941181,9.570394
1317,-5.706583,-0.42801616,9.532108
1318,-5.459823,-0.212363,9.040981
1319,-5.7400823,-0.29641092,9.951151
1320,-5.9748783,-0.49980083,10.214661
1321,-6.696015,-0.94785684,10.693824
1322,-6.899405,-0.89760756,10.799108
1323,-6.760621,-0.73459655,10.779965
1324,-6.3221364,-0.57427746,10.49492
1325,-6.331708,-0.5886344,10.485349
1326,-6.3125653,-0.80907315,10.729716
1327,-6.611967,-0.8880363,10.976476
1328,-6.8204417,-0.93589276,10.686645
1329,-6.957132,-1.0124631,10.89512
1330,-6.8395844,-1.07019,11.268699
1331,-6.7223363,-1.3094722,11.357234
1332,-6.753443,-1.3360924,11.225628
1333,-7.0097737,-1.2879368,10.765608
1334,-7.0265236,-1.340878,10.578968
1335,-6.971489,-1.3576277,10.059127
1336,-7.0432734,-1.3336995,9.932009
1337,-7.1365933,-1.4198412,10.080663
1338,-6.7390857,-1.5418751,10.284053
1339,-6.535397,-1.7455641,10.360922
1340,-6.5665035,-1.8511474,10.377672
1341,-6.4851475,-1.8029919,10.301102
1342,-6.343672,-1.8005991,10.375279
1343,-5.986842,-1.7120646,10.286446
1344,-5.773582,-1.6067804,9.838689
1345,-5.581857,-1.5804594,9.565608
1346,-5.052445,-1.6139588,8.844471
1347,-4.889733,-1.8822541,8.703294
1348,-4.7267222,-2.1095722,8.741579
1349,-4.41057,-2.2390838,8.379665
1350,-4.0609193,-2.2295125,8.130512
1351,-4.0106697,-2.5671997,8.504391
1352,-4.0537405,-2.902494,9.002696
1353,-3.7806597,-3.403192,9.501001
1354,-3.5339,-3.7244284,8.482856
1355,-3.531507,-3.6451662,9.129516
1356,-3.9840498,-3.6260235,8.854042
1357,-4.552046,-3.3768709,10.071092
1358,-4.4464626,-2.126621,9.273384
1359,-4.0920258,-1.4796617,10.4351
1360,-3.6343985,-1.5275182,10.193126
1361,-3.2105699,-1.910968,9.467203
1362,-2.8606195,-2.6512475,7.9534435
1363,-2.678765,-3.5829527,8.590532
1364,-2.7936203,-4.208078,7.8670025
1365,-2.408077,-5.590232,6.9999037
1366,-2.6306095,-6.7618175,6.5015984
1367,-3.4043884,-8.785847,5.4981084
1368,-4.6094737,-10.060324,3.6487553
1369,-5.9294147,-10.822139,-1.532902
1370,-6.27428,-11.682059,-1.777269
1371,-5.6276197,-15.01915,-5.5740805
1372,-5.953343,-16.997715,-4.7117667
1373,-4.41057,-21.805494,-5.03749
1374,-5.296812,-29.813673,-4.4889355
1375,-7.007381,-37.790745,-4.817051
1376,-7.759625,-36.949966,-5.753542
1377,-5.569893,-30.407692,-4.5224347
1378,-3.871587,-24.495625,-3.3077781
1379,-1.698904,-18.327227,-1.6621144
1380,1.4273187,-11.212468,12.301202
1381,1.939981,-4.9435716,24.386452
1382,0.96490574,-2.2725832,27.570103
1383,1.6645073,-3.0607193,15.192629
1384,1.2882359,-4.6322055,6.0227346
1385,-0.30957142,-5.621638,1.4374882
1386,-1.8041883,-5.3243294,1.8592232
1387,-7.199106,-5.619245,10.586146
1388,-5.680262,-4.639384,2.7263224
1389,-4.9471607,-4.3208394,-2.225026
1390,-3.1890345,-3.539882,-0.94337034
1391,-2.6473591,-2.3778675,-1.8275183
1392,-1.1766706,-0.70588267,-2.3018954
1393,-0.66400826,0.4103691,-2.0599213
1394,-0.7118647,1.1123635,-2.076671
1395,-0.7118647,1.1123635,-2.076671
1396,-0.70229346,1.5074782,-1.8801605
1397,-0.59940207,1.6824534,-2.0117657
1398,-0.23988047,1.7231314,-2.1317058
1399,-0.08673982,1.7374884,-2.4933212
1400,-0.12023934,1.8810577,-3.2599218
1401,-1.0522437,2.4320052,-5.135596
1402,-0.08673982,3.344867,-8.426923
1403,0.30867413,3.8096728,-9.0595255
1404,-0.2641078,2.707778,-7.07109
1405,-0.613759,2.1182463,-4.6468616
1406,-1.1814562,1.4045869,-4.0911283
1407,-1.5143577,0.80787677,-3.609573
1408,-1.6534405,-0.21475583,-2.455036
1409,-1.5646069,-0.5838487,-1.6908283
1410,-1.6079768,-0.6628119,-1.1422737
1411,-1.8161523,-0.8593224,-0.91465646
1412,-2.0557337,-1.0486546,-1.044168
1413,-2.065305,-1.2424731,-1.1327025
1414,-2.134996,-1.314557,-1.1973087
1415,-2.1732812,-1.1491531,-1.3220345
1416,-1.6941184,-0.78753775,-1.2646067
1417,-1.2604194,-0.6197411,-0.76630145
1418,-1.0642079,-0.49980083,-0.104985096
1419,-1.2173486,-0.8569296,0.45074797
1420,-1.6079768,-1.0076774,2.731108
1421,-14.641682,-12.71217,-4.963312
1422,-2.7194428,-12.889538,-18.905094
1423,-1.4569299,-14.115859,-13.201202
1424,-2.8773692,-21.27369,0.29252258
1425,1.1853445,-42.320656,9.002696
1426,7.818548,-61.87032,23.754148
1427,7.066304,-66.730736,31.817362
1428,-16.93909,-59.980286,10.461421
1429,-9.201599,-35.61567,-9.162417
1430,-6.6239314,-15.471692,-10.103992
1431,-9.196814,-8.237292,-10.379466
1432,-9.603892,-3.4271202,-6.4459653
1433,-6.2383876,0.41515473,1.1763715
1434,-5.6563334,2.4993033,4.0965123
1435,-3.8955152,3.3281171,5.732605
1436,-3.2129626,4.7772703,5.89083
1437,-1.4377873,4.036991,8.044371
1438,-1.6606189,3.0789645,11.386247
1439,1.4129617,5.107779,9.146265
1440,2.076372,5.574978,5.6871414
1441,3.990331,-0.919143,11.038689
1442,5.3557353,-7.533204,10.746466
1443,5.7726846,-10.319048,10.439885
1444,2.7496524,-8.505588,12.097513
1445,-0.77407813,-5.695815,12.411272
1446,-1.7682959,-3.0415766,10.890334
1447,-1.1096715,2.676372,6.2380886
1448,-3.3086755,2.7221348,5.81426
1449,-4.4775696,0.23060828,8.449356
1450,-5.723333,-1.6809579,10.317851
1451,-6.477969,-3.2189445,10.957334
1452,-6.61436,-3.58056,10.734502
1453,-6.1208405,-2.8713872,9.532108
1454,-4.5281177,-1.3384851,7.335198
1455,-2.2546372,-0.6436693,7.5723863
1456,-1.5478572,-0.40648076,8.350951
1457,-3.2249267,-0.68195444,9.999007
1458,-4.552046,-0.89760756,10.202697
1459,-5.1843495,-1.0462617,9.476774
1460,-6.916155,-0.9765707,9.093623
1461,-7.345068,-0.62931234,8.722437
1462,-7.1916285,-0.20757736,8.137691
1463,-6.602396,0.010169496,8.09462
1464,-5.871987,0.010169496,8.66471
1465,-5.2609196,0.20428723,9.237492
1466,-5.148457,0.34337005,9.606286
1467,-5.313562,0.1468595,9.532108
1468,-4.877769,-0.01375873,9.838689
1469,-5.352146,-0.14536397,9.728319
1470,-5.4957156,-0.028115666,9.932009
1471,-5.864808,0.53240305,10.482956
1472,-6.1618176,0.7576275,10.499705
1473,-6.9906316,0.59730834,10.336994
1474,-7.512865,0.50129634,10.564611
1475,-7.5702925,0.6786643,10.619646
1476,-6.8778696,0.74566334,10.641181
1477,-6.276673,0.5132605,11.153844
1478,-6.1208405,0.3696911,11.3213415
1479,-6.29103,0.27846473,11.707184
1480,-6.247959,0.2832504,11.781362
1481,-6.4348984,0.29790643,11.189736
1482,-6.8946195,0.2955136,11.026725
1483,-6.9523463,0.21625134,10.897512
1484,-6.9738817,0.1061815,10.847263
1485,-7.004988,0.09661021,10.490134
1486,-7.064809,0.122931264,10.392029
1487,-7.045666,0.070289165,10.217053
1488,-7.160522,-0.26051855,10.4159565
1489,-7.115058,-0.4758726,9.994222
1490,-6.9281187,-0.58624154,9.654142
1491,-6.995417,-0.60777694,9.38824
1492,-6.9619174,-0.55752766,9.4890375
1493,-6.422934,-0.42801616,10.030414
1494,-6.195317,-0.3801597,10.102198
1495,-6.0346985,-0.21714866,9.428918
1496,-5.8911295,0.04636094,9.005089
1497,-5.502894,0.23060828,8.64796
1498,-5.296812,0.058325052,8.454142
1499,-5.083851,-0.3610171,8.0013
1500,-4.82752,-0.90478605,7.878967
1501,-4.769793,-1.3432708,8.128119
1502,-4.6669016,-2.0258234,7.7330046
1503,-4.5448675,-2.3587248,8.236095
1504,-4.3962135,-2.7421749,8.892327
1505,-4.1997027,-2.984149,8.772686
1506,-4.3722854,-3.1468608,9.186943
1507,-4.6501517,-2.9913275,9.912866
1508,-4.4967117,-2.5911279,10.583754
1509,-4.1374893,-2.2055843,10.140483
1510,-3.7615173,-2.179263,9.364311
1511,-3.0595229,-2.3371894,9.103194
1512,-2.3814569,-2.7206392,9.230313
1513,-1.8738792,-3.5709887,9.747462
1514,-1.6749759,-4.38066,8.580961
1515,-1.6103697,-5.7053866,6.6598234
1516,-2.0509481,-7.001399,5.8357954
1517,-2.2235305,-7.8661056,5.093123
1518,-2.8582265,-9.039784,4.642674
1519,-3.7591243,-9.497412,2.268994
1520,-5.979664,-12.096616,-0.54346985
1521,-7.4383883,-15.09572,-4.246961
1522,-8.418249,-17.222939,-5.25075
1523,-6.1184473,-21.740887,-5.363213
1524,-7.6588273,-28.242188,-4.5248275
1525,-6.7175503,-35.08147,-4.388138
1526,-7.7066836,-38.621952,-5.104489
1527,-5.529215,-32.46552,-3.121138
1528,-3.4211383,-26.905497,-2.225026
1529,-0.4651049,-19.448265,0.57517475
1530,2.5196424,-13.289438,8.995518
1531,2.8956144,-8.896215,14.478671
1532,3.2934213,-4.9938207,21.45674
1533,3.5162528,-1.6809579,21.523739
1534,2.4837499,-2.8953154,8.2145605
1535,0.35174492,-4.4931226,0.2542374
1536,-1.3683954,-5.1759744,-0.13609178
1537,-1.8041883,-4.577171,3.3203406
1538,-6.0011992,-3.4657044,12.768401
1539,-5.811867,-2.7589245,7.4240313
1540,-4.2741795,-3.0320053,-1.0130613
1541,-3.452544,-2.8426733,-4.54397
1542,-0.613759,-1.2520444,-4.6372905
1543,-0.39810586,-0.123828575,-4.1007
1544,-0.2976073,0.2832504,-2.510071
1545,-0.2641078,0.82971126,-1.6022938
1546,-0.19202402,1.1075778,-1.9710877
1547,-0.093918286,1.2008978,-2.5531418
1548,0.12412767,1.2200404,-3.2790644
1549,0.4019942,1.2966107,-3.894917
1550,0.41156548,1.7111673,-4.6731825
1551,0.933799,2.5471597,-4.4264226
1552,1.1829517,2.786741,-4.215854
1553,-0.18245272,2.1999013,-4.881657
1554,-1.3157533,1.0163515,-3.85394
1555,-1.442573,0.76241314,-3.4995031
1556,-1.6917256,0.37686956,-4.4410787
1557,-0.82941216,0.4127619,-4.4817567
1558,-0.7070791,0.20668006,-3.4085758
1559,-1.0399805,-0.068793654,-2.606083
1560,-1.4976078,-0.32991043,-1.5855441
1561,-1.9049859,-0.32033914,-1.0896316
1562,-1.9384855,-0.28205398,-0.94337034
1563,-1.8448663,-0.30837503,-1.015454
1564,-1.6247265,-0.17647067,-0.9532407
1565,-1.3058829,-0.0017946169,-0.67028946
1566,-0.898804,0.23539393,-0.5626124
1567,-0.75972116,0.15164514,-0.21774685
1568,-0.8748758,-0.10468599,-0.0738784
1569,-1.3540385,-0.6628119,-0.04995017
1570,-10.629217,-7.6552377,38.75954
1571,-10.785049,-7.8206415,-9.282357
1572,-4.4057846,-7.3103724,-14.437394
1573,-4.3651066,-9.044571,-9.167203
1574,-12.217453,-29.226833,8.238488
1575,-7.342675,-69.78488,28.176085
1576,11.608181,-77.49844,78.709206
1577,-10.099805,-76.33912,17.985651
1578,-4.3411784,-41.34319,-5.063811
1579,0.75643104,-15.9795685,-19.379171
1580,-4.731508,-8.268398,-15.87937
1581,-9.824331,-1.774278,-8.587542
1582,-11.141879,1.0833504,-2.7831519
1583,-7.5009007,4.6576295,3.6918263
1584,-6.425327,5.637191,3.8042889
1585,-5.871987,5.206184,-0.030807592
1586,-4.7075796,4.8637114,2.2184458
1587,-2.024627,4.0995035,10.010972
1588,-0.24496523,4.2885365,18.11995
1589,2.0548365,3.3807592,17.619251
1590,-1.7850457,-0.212363,6.068198
1591,-8.499605,-6.9894347,2.1993032
1592,-3.4283166,-10.685748,7.3642106
1593,5.4445686,-13.452449,10.301102
1594,3.8850467,-11.983854,7.98455
1595,1.5661024,-8.95125,6.1902323
1596,-0.28803602,-6.6514487,6.0777693
1597,-1.9265213,-3.9302113,5.9027944
1598,-2.7218359,-1.7862421,6.317351
1599,-2.5588248,-0.7609176,6.726823
1600,-2.3865414,-1.230509,6.793822
1601,-2.6401806,-2.1047866,7.603493
1602,-2.5372894,-3.0583265,8.985947
1603,-2.4942186,-4.1985064,10.18834
1604,-2.7888348,-4.354339,9.541679
1605,-4.147061,-3.3601213,9.163015
1606,-5.4000025,-1.8774685,7.98455
1607,-4.4775696,-1.1252248,7.5604224
1608,-3.411567,-0.8330014,7.713862
1609,-2.0820549,-1.0124631,7.728219
1610,-1.5550356,-1.448555,7.972586
1611,-1.6893328,-1.9707886,8.446963
1612,-3.0068808,-2.8522446,8.765508
1613,-3.9098723,-3.3242288,8.856435
1614,-4.2885365,-3.0463624,9.155837
1615,-4.8059845,-2.7469604,9.476774
1616,-5.306383,-2.6775684,10.054341
1617,-5.428716,-2.478665,9.716355
1618,-5.708976,-2.4858437,9.829117
1619,-5.6443696,-2.248655,9.349955
1620,-6.029913,-2.0904298,9.21805
1621,-6.068198,-1.666601,9.352347
1622,-5.3976097,-1.5323038,9.800404
1623,-5.4023952,-1.6450655,11.0913315
1624,-5.682655,-1.966003,11.834003
1625,-5.9581285,-1.7982062,11.239985
1626,-6.38435,-1.625923,10.238589
1627,-6.957132,-1.3671991,9.788439
1628,-7.3522468,-1.2376875,10.118948
1629,-7.201499,-1.1970096,9.869795
1630,-7.160522,-1.7407784,10.092627
1631,-6.7558355,-1.1922239,10.20509
1632,-6.9595246,-1.4964114,10.986047
1633,-7.007381,-1.434198,11.129915
1634,-7.179664,-1.4676976,11.048261
1635,-6.971489,-1.4772689,10.976476
1636,-6.885048,-1.3624134,10.864013
1637,-6.7893353,-1.3743775,10.82812
1638,-6.585646,-1.4054842,10.744073
1639,-6.3915286,-1.4796617,10.602897
1640,-6.3364935,-1.5299109,10.485349
1641,-6.396613,-1.599602,10.5284195
1642,-6.4827547,-1.7814565,10.447063
1643,-6.192924,-1.8487546,10.449456
1644,-6.0514483,-1.9133608,10.497313
1645,-5.9748783,-1.5729818,9.958329
1646,-5.962914,-1.4461622,9.64457
1647,-5.9748783,-1.4102699,9.673285
1648,-5.7616177,-1.434198,9.498609
1649,-5.4574304,-1.3648062,9.103194
1650,-5.0790653,-1.3743775,8.533105
1651,-4.499105,-1.2903296,7.7162547
1652,-4.2646084,-1.434198,7.0815587
1653,-4.025027,-1.7670995,6.913762
1654,-4.0106697,-1.8798612,7.119844
1655,-4.5424747,-2.8091738,8.037192
1656,-4.772186,-3.075076,8.353344
1657,-4.1518464,-3.3338,8.396415
1658,-3.926622,-3.5829527,8.128119
1659,-3.4716866,-3.6643088,8.456534
1660,-3.4354951,-3.4704902,8.305488
1661,-3.1576285,-2.603092,9.347562
1662,-3.4043884,-2.1194427,9.730712
1663,-3.600899,-1.8607187,10.231411
1664,-3.5506496,-1.7407784,10.197911
1665,-3.354139,-2.2031915,10.705788
1666,-3.6080775,-2.943471,10.245768
1667,-3.4980075,-3.8321054,9.079267
1668,-2.48704,-4.867001,7.972586
1669,-2.7553353,-6.1534424,6.3676
1670,-3.2943187,-6.6514487,4.2858443
1671,-3.3182468,-8.618349,5.272884
1672,-3.3613176,-8.92493,3.461816
1673,-5.38086,-11.849856,0.017048862
1674,-6.195317,-12.954144,-0.5267201
1675,-8.729615,-17.781065,-6.230312
1676,-9.04816,-24.553053,-6.491429
1677,-7.09113,-32.666813,-3.0825539
1678,-7.986943,-39.084366,-1.8897316
1679,-8.190632,-41.592342,-4.019344
1680,-4.755436,-33.54588,-3.1929228
1681,-2.5109682,-26.812176,0.1896312
1682,-0.26650062,-18.03979,6.4872413
1683,0.44027936,-12.501302,8.233703
1684,0.62721866,-9.576375,7.1892357
1685,0.6439684,-4.9531426,10.181161
1686,1.6283158,-0.4112664,19.126131
1687,2.7520452,0.8751749,13.609179
1688,2.4646072,-0.09272188,2.6808586
1689,0.62721866,-1.9325033,-1.4751751
1690,-0.5371887,-2.4595225,-0.69212395
1691,0.23659034,-1.8125632,-0.27038896
1692,0.70378894,-1.0845468,1.9214365
1693,-0.8030911,-0.9933205,7.1581287
1694,-4.4081774,-1.2065809,12.574283
1695,-2.3431716,-0.9957133,1.5646069
1696,-1.6917256,-0.95742816,-3.2072797
1697,-1.483251,-1.2855439,-4.1007
1698,-0.2111666,-0.6795616,-2.62044
1699,0.2222334,-0.24376881,-1.5089738
1700,0.008973085,-0.45673,-1.1949158
1701,-0.096311115,-0.3610171,-1.7051853
1702,0.18155542,0.019740786,-2.7759733
1703,0.26769704,0.46061835,-3.418147
1704,0.04755735,0.8847462,-3.1809585
1705,-0.1369891,1.1602199,-2.2875385
1706,-0.37417763,1.1291132,-1.3579268
1707,-0.3574279,1.186541,-0.99631155
1708,-0.17048861,1.061815,-0.62961143
1709,-0.50099725,0.6643074,-1.3363914
1710,-0.7262217,0.2330011,-2.376073
1711,-0.762114,-0.08554341,-3.5497525
1712,-0.8222337,-0.24107689,-3.8973098
1713,-0.90358967,-0.45912284,-3.9930227
1714,-1.1742777,-0.6436693,-3.935595
1715,-1.5646069,-0.54317075,-2.9437702
1716,-1.672583,-0.43758744,-2.239383
1717,-1.864308,-0.30358937,-1.9710877
1718,-1.998306,-0.22671995,-1.681257
1719,-2.1445673,-0.11425728,-1.2765709
1720,-2.1131616,-0.13339986,-1.1590235
1721,-1.6510476,-0.23629123,-0.18903299
1722,-1.5526428,-0.4423731,-0.25842485
1723,-1.998306,-1.1156535,-0.04755735
1724,-7.553543,-4.8909297,19.399212
1725,-2.8079774,-3.8009987,-4.3259244
1726,-3.5697923,-6.4719872,-6.3861446
1727,-6.029913,-13.275081,-5.3416777
1728,-12.4115715,-34.070503,-1.8275183
1729,-34.46203,-77.65906,47.75446
1730,-6.736693,-77.65906,78.69724
1731,4.493422,-61.405514,-0.41665024
1732,9.238987,-25.817959,-34.00141
1733,5.621638,-12.451053,-26.311777
1734,1.2427722,-7.48774,-21.20699
1735,-8.530712,-1.6594225,-11.047662
1736,-8.842377,1.3663018,-3.458825
1737,-11.997015,3.3400812,7.7186475
1738,-13.468002,3.4597225,6.465706
1739,-12.710973,2.8609185,1.7994026
1740,-8.142776,2.039283,1.8975084
1741,-2.3670998,1.3325031,6.6909304
1742,1.6669,-0.5312066,12.598211
1743,2.684747,-4.70399,15.650256
1744,3.2671003,-10.910673,13.1491585
1745,4.4144588,-13.749458,10.377672
1746,8.455637,-15.50549,7.4048886
1747,5.7320065,-13.46202,10.803893
1748,1.4656038,-8.6757765,8.07787
1749,-1.9935204,-4.464409,8.0970125
1750,-3.4716866,-1.3983058,9.239884
1751,-2.2642083,0.4031906,8.137691
1752,-1.7922242,0.76959157,7.495816
1753,0.5697909,2.9976087,5.0309095
1754,-0.096311115,5.239683,5.610571
1755,-0.6233303,5.905486,7.071688
1756,-1.9911275,5.0599227,8.30788
1757,-2.7768707,3.4429727,9.146265
1758,-2.0318055,-1.570589,8.834899
1759,-1.6965113,-2.5695925,9.189336
1760,-1.2723835,-4.4668016,9.606286
1761,-1.5669997,-4.87418,9.436096
1762,-2.3814569,-3.8177485,7.740183
1763,-2.7816563,-2.3300111,8.3581295
1764,-2.7672994,-1.8535402,8.973982
1765,-3.7998023,-1.204188,8.715259
1766,-5.172385,-1.1539388,9.426525
1767,-4.621438,-1.3887345,8.655139
1768,-5.3015976,-1.2664014,7.9510508
1769,-5.445466,-0.8641081,8.29113
1770,-5.407181,-0.8330014,8.789435
1771,-5.639584,-1.2807583,9.206086
1772,-6.544968,-1.6642082,9.637392
1773,-7.1820574,-1.9707886,10.020543
1774,-6.4205413,-1.9325033,10.641181
1775,-5.7687964,-1.4940187,10.624432
1776,-4.971089,-0.54317075,10.557134
1777,-5.1963134,-0.37058842,10.947762
1778,-5.747261,-0.4351946,10.868798
1779,-6.4157557,-0.5312066,10.114162
1780,-7.115058,-0.6963114,9.786046
1781,-7.850552,-0.7106683,10.181161
1782,-7.701898,-0.7728817,10.533205
1783,-7.591828,-0.7369894,10.969297
1784,-7.21107,-0.58624154,11.213664
1785,-6.8132634,-0.74416786,11.306984
1786,-6.75105,-0.715454,11.292627
1787,-6.9738817,-0.71306115,11.417354
1788,-6.98106,-0.9023932,11.2806635
1789,-6.916155,-0.8353942,11.093724
1790,-6.818049,-1.0582259,11.26152
1791,-6.578468,-1.0797613,11.060225
1792,-6.1905313,-0.9287143,10.8352995
1793,-6.111269,-1.0220344,10.8664055
1794,-6.152246,-1.2496517,10.703395
1795,-6.192924,-1.2759727,10.564611
1796,-6.233602,-1.1252248,9.546465
1797,-6.2551374,-0.9957133,9.61825
1798,-6.108876,-0.8138588,9.668499
1799,-5.6946187,-0.7609176,9.582357
1800,-5.536393,-0.9095717,9.876974
1801,-5.5387864,-1.1180464,10.128519
1802,-5.313562,-1.2520444,10.003794
1803,-5.0141597,-1.4676976,9.520144
1804,-4.664509,-1.5011971,8.69133
1805,-4.2717867,-1.6618153,8.166703
1806,-3.9481573,-1.9061823,7.89123
1807,-3.9577286,-2.3467607,8.271988
1808,-3.4211383,-3.0607193,8.528319
1809,-3.5434713,-3.9493537,8.933005
1810,-3.3589249,-4.4859443,9.122337
1811,-3.6559339,-4.787739,9.431311
1812,-4.5999026,-4.4285164,9.687641
1813,-5.328218,-3.7555351,10.054341
1814,-5.9174504,-3.0008986,10.756037
1815,-5.785546,-2.5839493,10.291231
1816,-5.560322,-2.900101,9.009874
1817,-5.0718865,-3.566203,8.777472
1818,-4.7458644,-4.4428735,7.8717885
1819,-4.173382,-5.662316,7.6492558
1820,-4.0561333,-6.0861444,7.550851
1821,-3.1073792,-9.497412,7.958229
1822,-3.1217363,-12.2019,6.358029
1823,-4.8035913,-14.096716,3.7516468
1824,-6.75105,-15.613168,0.36430725
1825,-8.509176,-17.321045,-2.1460629
1826,-7.3570323,-18.384655,-4.2421756
1827,-3.0284162,-19.326231,-2.5459633
1828,-2.8558338,-18.935602,-1.777269
1829,-3.1169505,-22.57688,-2.3042881
1830,-4.415356,-26.36412,-3.5401812
1831,-4.935197,-28.172794,-4.273282
1832,-3.9050865,-25.276583,-3.2910285
1833,-2.4822545,-21.860529,-0.9819546
1834,-0.089132644,-15.922141,2.7646074
1835,2.047658,-9.389735,11.450852
1836,3.1830523,-4.5628138,21.612572
1837,3.8515472,-2.2319052,17.480167
1838,2.2848465,-5.9377894,2.9682965
1839,1.6932211,-6.6011996,-0.9723833
1840,1.326521,-6.419345,-0.14596218
1841,-3.749553,-5.6503515,-0.74476606
1842,-5.165207,-4.802395,2.5468607
1843,-9.536894,-4.1386857,15.539887
1844,-7.0935225,-3.760321,2.6090739
1845,-5.311169,-4.0214376,-4.0384865
1846,-2.5731816,-2.4762723,-6.841379
1847,-0.5587241,-0.6580262,-6.4387865
1848,-0.8437691,0.04636094,-5.094918
1849,-1.0929217,0.7648059,-3.5330026
1850,-1.0570294,1.375873,-2.8480573
1851,-1.2556337,1.7997017,-2.0647068
1852,-1.483251,1.9890338,-1.43689
1853,-1.3755739,2.0871396,-1.3316058
1854,-0.81266236,2.4634109,-1.6740786
1855,-0.3502494,2.7915268,-1.8370895
1856,-0.1896312,2.7819555,-2.1317058
1857,-0.5563313,2.4562325,-2.9006991
1858,-0.4004987,2.5375884,-2.4095724
1859,-0.26889345,2.3362923,-2.2178476
1860,-0.30239296,2.120639,-2.8935208
1861,-0.3047858,1.8595223,-4.074379
1862,-0.45074797,1.5888343,-4.328317
1863,-0.8916255,1.1003993,-3.106781
1864,-1.0136595,0.5949155,-1.6836498
1865,-0.8437691,0.47976094,-0.7304091
1866,-0.75254273,0.3696911,-0.30867413
1867,-0.6664011,0.32422748,-0.27038896
1868,-0.58504516,0.22103699,-0.34217364
1869,-0.63529444,0.1372882,-0.31345975
1870,-0.6664011,0.041575294,-0.15074782
1871,-0.654437,-0.020937199,-0.15074782
1872,-0.6041877,-0.27966115,0.21595225
1873,0.38763726,-3.0870404,23.44039
1874,-4.56401,-4.625027,12.564712
1875,-6.25753,-3.932604,-8.556435
1876,-2.268994,-3.4055848,-15.544075
1877,0.07148558,-3.6858442,-9.610473
1878,1.8224336,-5.468198,-7.816155
1879,-33.04159,-61.266727,75.065834
1880,-38.132023,-77.30193,78.52227
1881,-3.9891346,-77.65906,-4.766802
1882,9.813863,-39.009888,-33.08885
1883,10.774581,-14.695819,-30.16153
1884,2.955435,-3.2309089,-15.316458
1885,-0.64247286,0.4127619,-4.2134614
1886,-3.5937204,3.9580278,0.3188436
1887,-2.824727,7.553842,5.881259
1888,-2.8462625,7.8891363,6.750751
1889,-3.751946,8.7418785,6.068198
1890,-1.5741782,5.354539,9.838689
1891,-1.2173486,4.322335,7.785647
1892,-3.2297122,4.3534417,5.663213
1893,-2.9829526,4.499404,12.159726
1894,-3.9457645,1.1697912,3.7636108
1895,-7.4865437,-3.7145581,10.530812
1896,-1.1670992,-9.195618,17.408382
1897,2.0931215,-10.098609,15.44896
1898,3.0849466,-7.8924265,11.00519
1899,3.2647073,-4.8693943,4.918148
1900,1.9088743,-1.9037895,3.1432717
1901,0.09302098,-0.349053,3.4259238
1902,-2.786442,-0.5838487,4.1347976
1903,-4.755436,-1.2376875,6.681359
1904,-6.5808606,-2.955435,9.800404
1905,-5.2369914,-4.1410785,9.50818
1906,-3.2847474,-5.046463,8.398808
1907,-3.8356948,-4.8239303,8.681459
1908,-4.995017,-3.3768709,8.681459
1909,-5.3330035,-2.399702,7.9223366
1910,-4.022634,-1.9803598,7.7353973
1911,-1.8858434,-1.7814565,8.027621
1912,-0.36460635,-1.7144574,8.396415
1913,-0.52522457,-2.1095722,9.979865
1914,-2.2354946,-2.5097718,10.080663
1915,-4.3818564,-2.64377,9.900902
1916,-5.419145,-2.385345,8.662317
1917,-5.428716,-1.9229321,9.036196
1918,-5.634798,-1.82692,9.359526
1919,-5.165207,-1.9133608,9.309277
1920,-4.4656053,-1.0749756,8.933005
1921,-5.8624153,-1.7312071,9.096016
1922,-5.6970115,-1.5490535,9.000303
1923,-6.1331034,-1.8388842,8.779864
1924,-7.359425,-2.1337996,9.733106
1925,-6.957132,-1.6115661,9.445667
1926,-6.381957,-1.3839488,9.460024
1927,-6.324529,-1.1754742,9.829117
1928,-6.329315,-0.9382856,9.879367
1929,-6.6406813,-0.7369894,10.334601
1930,-6.9738817,-0.72263247,10.313066
1931,-6.9762745,-0.878465,10.41835
1932,-7.146165,-0.9765707,10.547563
1933,-7.3713894,-0.86171526,10.439885
1934,-7.524829,-0.8330014,10.49492
1935,-7.7090764,-0.79950184,10.600503
1936,-7.6851482,-0.7609176,10.622039
1937,-7.555936,-0.92153585,10.722537
1938,-7.5009007,-1.3121641,10.993225
1939,-7.630113,-1.50359,11.187344
1940,-7.759625,-1.5681962,11.115559
1941,-7.876873,-1.5083755,10.442278
1942,-7.941479,-1.5299109,10.1955185
1943,-7.7234335,-1.5586249,10.114162
1944,-7.5846496,-1.6283158,9.798011
1945,-7.301997,-1.774278,9.9344015
1946,-7.3283186,-1.8364913,9.97508
1947,-6.96431,-1.7958134,9.747462
1948,-6.6406813,-1.7862421,9.670892
1949,-6.489933,-1.7958134,9.474381
1950,-6.1307106,-1.7096717,9.378669
1951,-5.8046885,-1.4653047,8.760722
1952,-5.651548,-1.3624134,8.144869
1953,-5.3569317,-1.7048861,8.19781
1954,-5.5316076,-1.9947168,8.09462
1955,-5.0213385,-2.2606192,7.5676007
1956,-5.2202415,-2.4523442,7.347162
1957,-4.7602215,-2.5983062,6.8204417
1958,-4.5038905,-3.3816566,6.6095743
1959,-4.822734,-3.5063825,7.752147
1960,-4.5281177,-3.499204,9.060123
1961,-4.1231327,-4.208078,7.534101
1962,-3.859623,-3.9349968,9.46481
1963,-3.9026937,-3.784249,10.317851
1964,-3.7181473,-2.9243283,10.317851
1965,-3.8237305,-2.3754747,10.11177
1966,-3.600899,-1.9013968,10.701002
1967,-3.1456645,-1.8340986,11.462817
1968,-3.083451,-2.3587248,10.272088
1969,-2.757728,-2.9626136,10.514063
1970,-2.566003,-3.5901313,5.854938
1971,-2.3431716,-5.595317,9.737891
1972,-3.8356948,-7.152147,5.536393
1973,-4.3579283,-9.372986,7.361818
1974,-5.028517,-10.4413805,5.667999
1975,-5.201099,-10.505987,-0.8500503
1976,-4.302893,-10.637592,-4.888836
1977,-4.7578287,-12.09183,-7.466504
1978,-5.2920265,-17.824137,-7.4856467
1979,-2.513361,-25.55445,-7.303493
1980,-7.515258,-33.823746,-8.151449
1981,-9.11785,-43.13033,-5.7559347
1982,-6.7965136,-34.95196,-1.7748762
1983,-5.107779,-29.715567,-0.8500503
1984,-3.3613176,-23.477478,-1.7291135
1985,-0.8844471,-16.885252,-2.1484556
1986,1.3504493,-11.444871,2.2591236
1987,8.733503,-0.7369894,29.7045
1988,5.988338,-2.3973093,20.263918
1989,2.1891336,-6.1845493,9.340384
1990,0.60329044,-6.7378893,6.858727
1991,-0.7573284,-3.9014974,14.461921
1992,-6.5114684,-2.8881369,14.579469
1993,-7.8888373,-3.661916,3.4043884
1994,-6.480362,-4.4189453,-4.3618164
1995,-4.9064827,-4.3878384,-3.839583
1996,-2.4798615,-3.0032916,-5.5310097
1997,-0.2760719,-0.9622138,-3.5712879
1998,0.2653042,0.40558344,-2.1939192
1999,0.39960137,1.3854443,-1.4946169
2000,-0.07477571,1.4668003,-1.6740786
2001,0.5697909,1.4141582,-1.8131614
2002,-0.08673982,2.161317,-2.0407786
2003,0.16002001,2.056033,-1.7147565
2004,0.45942193,2.039283,-1.3316058
2005,0.49052864,2.1254246,-1.4874383
2006,0.2844468,2.3027928,-2.4670002
2007,1.0606186,3.1172497,-6.965806
2008,0.37328035,2.8872397,-9.835697
2009,0.4331009,2.894418,-8.779266
2010,-0.12023934,2.5399811,-6.218348
2011,-0.75493556,2.5471597,-6.1034923
2012,-0.41485563,2.2381866,-4.4817567
2013,-0.94426763,0.9613165,-2.4789643
2014,-1.0785648,0.5805586,-1.5352948
2015,-1.2699906,0.23778675,-0.72083783
2016,-1.5335002,-0.07836494,-0.14327025
2017,-1.8065811,-0.3179463,-0.009272188
2018,-1.8810577,-0.60059845,0.26859435
2019,-1.9241285,-0.6723832,0.67118675
2020,-1.8858434,-0.7298109,0.80518484
2021,-2.0198414,-0.8712866,0.71665037
2022,-1.9360926,-1.0606186,0.5943173
2023,-1.7994026,-1.1874382,0.7908279
2024,-3.6631124,-3.987639,23.842684
2025,-7.711469,-8.285447,29.115267
2026,-9.266206,-8.771489,-8.499007
2027,-5.323133,-10.136894,-14.5259285
2028,-7.1509504,-15.984354,-12.2120695
2029,-14.828621,-36.700813,4.8918266
2030,-19.71297,-61.247288,16.14587
2031,7.516454,-77.55109,42.544388
2032,1.3794622,-66.26593,37.657646
2033,-9.2997055,-41.14907,-3.9954157
2034,-2.8319056,-23.424837,-17.934803
2035,2.1003,-14.403296,-24.412174
2036,-0.93230355,-7.856534,-11.493325
2037,-3.3924243,-2.8546374,-1.5352948
2038,-6.4444695,-1.1682956,3.9888353
2039,-5.5340004,0.45104706,6.108876
2040,-3.830909,1.1530414,4.4967117
2041,-2.14696,1.2320045,5.0333023
2042,-0.9107681,1.0666007,7.0022964
2043,-0.38135612,0.5901299,7.8239317
2044,1.3770695,0.97567344,4.8439703
2045,2.5938199,-2.6943183,4.7985067
2046,4.8191447,-8.129615,9.450453
2047,8.048259,-13.272688,11.989836
2048,4.107878,-15.210575,12.897614
2049,0.11934203,-13.524234,13.721642
2050,-1.9887347,-9.552447,11.194522
2051,-1.5960127,-6.754639,7.004689
2052,-1.6007984,-1.9827527,2.9252257
2053,-2.3024936,1.3181462,2.9467611
2054,-2.757728,5.4050875,2.7646074
2055,-3.9891346,6.930811,6.1710896
2056,-5.2274203,2.5782664,7.5460653
2057,-4.4967117,-2.495415,10.276875
2058,-3.6607196,-5.022535,10.47817
2059,-3.4067812,-6.617949,8.935398
2060,-3.179164,-6.1654067,7.876574
2061,-3.0762727,-5.1257253,7.565208
2062,-2.7816563,-4.24397,8.55464
2063,-1.5430715,-3.3696926,8.604889
2064,-1.1503495,-2.6341987,9.086445
2065,-1.1264212,-2.248655,9.172586
2066,-2.335993,-1.7718852,9.735498
2067,-4.075276,-1.16351,9.579965
2068,-4.360321,-1.340878,8.95484
2069,-4.894519,-1.4054842,8.423035
2070,-5.2226343,-1.8678972,8.576176
2071,-4.360321,-1.8726828,8.944969
2072,-4.022634,-2.0521445,9.146265
2073,-4.6262236,-1.6594225,9.865009
2074,-4.853841,-1.5490535,9.879367
2075,-5.395217,-1.2209377,9.829117
2076,-5.6060843,-1.2472588,9.697213
2077,-5.5722857,-1.2089736,9.687641
2078,-5.328218,-1.3217354,9.505787
2079,-5.0333023,-1.3094722,9.67807
2080,-5.3832526,-1.1587243,9.766904
2081,-5.9342003,-1.1515459,9.654142
2082,-6.1618176,-1.2759727,9.769297
2083,-6.4205413,-1.2664014,10.157233
2084,-6.4037914,-1.1970096,10.396814
2085,-6.480362,-1.16351,10.612468
2086,-6.381957,-1.3911272,10.70818
2087,-6.3795643,-1.6331015,10.871191
2088,-6.3867426,-1.5948163,10.813464
2089,-6.59761,-1.5275182,11.086546
2090,-6.858727,-1.625923,11.345269
2091,-6.9451675,-1.719243,11.292627
2092,-6.875477,-1.6953149,10.813464
2093,-6.684051,-1.7647067,10.449456
2094,-6.5497537,-1.8245273,10.092627
2095,-6.3125653,-1.8173488,9.979865
2096,-6.1881385,-2.0401804,10.152448
2097,-5.989235,-2.1505494,10.214661
2098,-5.8911295,-2.1744776,10.066306
2099,-6.207281,-2.1529422,9.786046
2100,-6.413363,-2.097608,9.268599
2101,-6.3628144,-2.0665014,8.875577
2102,-6.053841,-1.9157536,8.580961
2103,-5.560322,-1.9492532,8.4349985
2104,-4.999803,-1.8221345,8.372486
2105,-4.698008,-1.8053846,8.099405
2106,-4.623831,-1.9803598,8.113763
2107,-4.892126,-2.097608,8.3174515
2108,-4.8993044,-2.4020948,8.497212
2109,-4.4799623,-2.4595225,8.478069
2110,-4.022634,-2.5552354,7.9965143
2111,-3.8763726,-2.5528426,8.041978
2112,-3.8572302,-2.4619155,8.295917
2113,-4.034598,-2.1481566,9.062516
2114,-3.76391,-1.7766708,10.092627
2115,-3.19382,-1.8583258,9.903295
2116,-2.4008985,-2.05693,9.48156
2117,-1.6534405,-2.478665,9.433703
2118,-0.7405786,-3.2309089,9.412168
2119,-0.18484555,-3.784249,9.501001
2120,0.22462623,-4.70399,9.24467
2121,0.29162526,-5.7245293,8.679067
2122,0.040378883,-6.5772715,7.6779695
2123,-0.53240305,-7.5882387,8.128119
2124,-2.6138597,-8.678169,7.9151583
2125,-4.1087756,-9.957433,6.5350976
2126,-4.8729835,-11.107183,5.188836
2127,-5.4957156,-11.8283205,4.173382
2128,-6.06102,-13.13869,0.6445666
2129,-6.4923263,-14.72214,-2.5507488
2130,-8.078169,-18.847067,-5.3512487
2131,-9.9705925,-24.090939,-6.026623
2132,-8.372786,-30.367014,-5.4900327
2133,-8.087741,-35.9055,-4.793123
2134,-6.595217,-35.596527,-4.29721
2135,-4.1757746,-30.172895,-2.7448666
2136,-3.3565319,-25.02025,-1.3603196
2137,-2.0509481,-20.21965,-1.5281163
2138,-0.60658056,-16.233507,0.381057
2139,0.87637126,-11.919248,3.4307094
2140,2.7065816,-6.773782,11.78854
2141,4.3040895,-2.0258234,22.831715
2142,3.501597,-3.4680972,15.108582
2143,0.40917268,-7.734201,3.0257242
2144,0.44985065,-7.3845496,2.01027
2145,1.2954143,-5.3533425,3.286841
2146,-1.509572,-3.6690943,10.380065
2147,-5.1388855,-2.7086751,14.706288
2148,-5.7544394,-2.2677977,7.7162547
2149,-7.9223366,-3.441477,-3.9571304
2150,-7.701898,-3.4271202,-5.5597234
2151,-5.476573,-2.6006992,-5.3536415
2152,-3.0523443,-0.526421,-5.154738
2153,-0.34307095,0.6786643,-3.3101711
2154,0.22462623,1.0067801,-2.141277
2155,0.74207413,1.5337993,-1.0345967
2156,1.1638091,1.7255242,-0.06669993
2157,0.8258229,1.8403797,-0.2727818
2158,0.4426722,1.3109677,-0.96520483
2159,0.38763726,1.2655041,-1.3794622
2160,0.45942193,1.0666007,-1.8562322
2161,0.42592242,0.93738824,-2.2947168
2162,0.28923243,0.8222337,-2.2058833
2163,0.29671,0.91585284,-3.257529
2164,-0.23509483,0.97567344,-5.1667023
2165,-0.12263216,0.5949155,-7.140781
2166,-0.10827523,-0.09750752,-6.2733827
2167,0.49292147,-0.32033914,-5.6171513
2168,0.45224348,-0.29162526,-4.4410787
2169,-0.20398813,-0.29641092,-3.85394
2170,-0.88683987,-0.45912284,-3.8156548
2171,-1.509572,-0.76570326,-3.3436706
2172,-1.3875381,-0.9239286,-2.618047
2173,-1.2460624,-0.91196454,-2.1723838
2174,-1.198206,-0.86171526,-1.6692929
2175,-1.0977074,-0.7465607,-1.2335001
2176,-1.0857433,-0.74177504,-0.8859426
2177,-0.5587241,-0.25812575,-0.6008976
2178,0.08584251,0.15643078,-0.5626124
2179,-0.573081,-0.34187454,0.17048861
2180,-1.1288141,-0.79471624,1.3130615
2181,-13.161422,-9.502198,32.859436
2182,-8.020741,-9.808778,-19.463219
2183,-2.3985057,-8.625527,-10.156635
2184,-8.760722,-19.500906,20.498713
2185,-8.557332,-43.81767,15.822539
2186,-3.054737,-77.65906,41.9073
2187,-12.480963,-77.65906,26.578278
2188,1.477568,-48.59434,-2.3904297
2189,-2.6282165,-21.331116,-8.343174
2190,-6.1450677,-10.290334,-8.585149
2191,-6.9185476,-4.9770713,-4.9728837
2192,-6.5258255,-1.6618153,-3.0418758
2193,-5.4382877,0.17557336,-1.4153546
2194,-3.0667014,2.9542387,2.2857437
2195,-1.6342978,3.8910286,5.9027944
2196,-1.864308,5.381159,9.27817
2197,-2.0581267,5.1678987,8.09462
2198,-0.9610174,6.0086765,8.0348
2199,-1.4665012,4.2167516,8.262417
2200,1.0773684,-4.328018,10.844871
2201,4.3378882,-11.75175,10.133305
2202,6.450751,-14.724533,10.059127
2203,2.510071,-13.068999,12.339487
2204,-2.297708,-8.932108,12.8569355
2205,-3.2081769,-5.8636117,10.66511
2206,0.77796644,0.46061835,6.2691956
2207,3.4250264,4.7341995,4.542176
2208,1.2643076,3.2153554,6.0155563
2209,-2.5109682,-0.15972091,9.314062
2210,-4.4368916,-1.992324,10.41835
2211,-5.8190455,-3.3816566,10.313066
2212,-5.8190455,-4.2535415,9.615857
2213,-6.0394845,-4.6465626,8.616854
2214,-5.598906,-4.0357943,8.125727
2215,-5.1029935,-3.1013973,8.099405
2216,-4.633402,-2.7828526,8.528319
2217,-3.8787656,-2.4451656,8.058727
2218,-3.7998023,-1.8870398,7.687541
2219,-4.0704904,-1.8942182,7.18445
2220,-5.0045886,-1.707279,8.0563345
2221,-5.625227,-1.355235,8.66471
2222,-5.407181,-1.2735798,8.504391
2223,-4.861019,-0.93349993,8.844471
2224,-5.4023952,-1.2999009,8.600103
2225,-5.8453665,-1.3217354,8.405986
2226,-5.960521,-1.6977077,8.604889
2227,-5.665905,-2.1649063,8.830113
2228,-5.658726,-2.3587248,9.342776
2229,-5.912665,-2.2869403,9.117552
2230,-6.2862444,-1.8966111,8.545069
2231,-6.3891354,-1.4246268,8.350951
2232,-6.4325056,-1.3743775,8.46132
2233,-6.2934227,-1.3695918,8.839685
2234,-6.0251274,-1.3528421,8.909077
2235,-5.8863435,-1.4222339,9.266206
2236,-6.0514483,-1.5514464,9.366704
2237,-6.3460646,-1.5442679,9.67807
2238,-6.437291,-1.462912,9.826724
2239,-6.3867426,-1.204188,9.922438
2240,-6.1570315,-0.9167502,9.982258
2241,-5.936593,-0.7609176,10.01815
2242,-5.790332,-0.72502524,10.150055
2243,-5.8022957,-1.0677971,10.636395
2244,-5.919843,-1.3887345,11.216057
2245,-6.0490556,-1.4844474,10.940583
2246,-6.2551374,-1.489233,10.535598
2247,-6.6358953,-1.4102699,9.967901
2248,-7.021738,-1.4437693,9.812367
2249,-7.2326055,-1.692922,9.92483
2250,-7.2038918,-1.7240287,9.81476
2251,-7.1365933,-1.6331015,9.544072
2252,-7.119844,-1.6857436,9.611072
2253,-6.9595246,-1.7575282,9.400204
2254,-6.6744795,-1.7599211,9.072088
2255,-6.3915286,-1.6043876,8.765508
2256,-6.1307106,-1.4700904,8.504391
2257,-6.084948,-1.5586249,8.535498
2258,-6.135496,-1.585245,8.810971
2259,-6.27428,-1.5924234,8.772686
2260,-6.1905313,-1.8340986,9.007482
2261,-5.7640104,-2.0688944,9.249456
2262,-5.241777,-2.1744776,9.036196
2263,-4.724329,-2.0712872,8.374879
2264,-4.5616174,-2.0306091,7.9654074
2265,-4.5975094,-2.263012,7.8143606
2266,-4.566403,-2.4451656,7.7569327
2267,-4.5592246,-2.6895328,7.670791
2268,-4.3890347,-3.0678978,7.7234335
2269,-4.113561,-3.3649068,7.9223366
2270,-4.039384,-3.5566318,8.09462
2271,-3.885944,-3.525525,8.132905
2272,-3.9744785,-3.4944184,8.11137
2273,-4.1183467,-3.1540394,7.5317082
2274,-4.1183467,-2.821138,7.440781
2275,-4.240381,-2.4236302,8.085049
2276,-4.1231327,-1.8583258,8.125727
2277,-3.9864426,-1.4676976,8.909077
2278,-4.0034914,-1.3576277,9.716355
2279,-4.1231327,-1.7048861,9.29492
2280,-3.2416766,-2.1505494,9.556036
2281,-3.682255,-3.784249,11.072188
2282,-4.1614175,-5.688637,9.658928
2283,-3.938586,-6.8192453,7.1413794
2284,-4.276572,-8.283054,6.1974106
2285,-4.9160542,-9.940682,5.7373905
2286,-5.8672013,-12.235399,4.6788654
2287,-6.897012,-13.905291,3.5383866
2288,-7.055238,-15.131612,0.5608178
2289,-6.5688963,-16.703098,-3.1019955
2290,-2.216352,-19.541883,-2.728117
2291,-3.4860435,-22.646273,-3.5353954
2292,-4.484748,-28.39084,-3.434897
2293,-5.2537413,-37.091145,-4.692325
2294,-3.8548372,-36.406197,-4.08395
2295,-1.7084754,-30.376585,-2.074278
2296,-0.7405786,-24.859632,-1.6118652
2297,0.09302098,-19.618454,-0.6873383
2298,1.0917253,-14.817853,0.6373881
2299,1.7578273,-10.860424,2.949154
2300,3.4010983,-5.8489556,11.239985
