,ax,ay,az
501,-5.0548377,-1.2496517,-10.786546
502,-5.11735,-1.314557,-10.784153
503,-5.203492,-1.3313067,-10.669297
504,-5.38086,-1.3600205,-10.453644
505,-5.543572,-1.407877,-10.285848
506,-5.625227,-1.4365909,-9.960124
507,-5.6324053,-1.489233,-9.754043
508,-5.517251,-1.5634105,-9.509675
509,-5.4239306,-1.5490535,-9.440284
510,-5.1364927,-1.5538392,-9.370892
511,-4.9232326,-1.556232,-9.299107
512,-4.7745786,-1.570589,-9.327821
513,-4.415356,-1.7838492,-9.370892
514,-4.293322,-1.8460627,-9.387642
515,-4.0920258,-1.992324,-9.39482
516,-4.0441694,-2.0497518,-9.416355
517,-3.979264,-2.0425732,-9.507282
518,-4.025027,-2.0617158,-9.5048895
519,-4.0585265,-1.9947168,-9.47139
520,-4.2574296,-1.87029,-9.579367
521,-4.374678,-1.6689938,-9.560224
522,-4.470391,-1.5804594,-9.468997
523,-4.5472603,-1.5514464,-9.231809
524,-4.6764727,-1.7383857,-8.990134
525,-4.7988057,-1.9181465,-8.68804
526,-4.834698,-2.2055843,-8.479864
527,-4.8729835,-2.2965117,-8.4679
528,-4.79402,-2.6246274,-8.367103
529,-4.7339005,-2.6991038,-8.431708
530,-4.583153,-2.7086751,-8.499007
531,-4.400999,-2.64377,-8.647362
532,-4.1662035,-2.4619155,-8.807981
533,-3.9433718,-2.3060827,-9.097811
534,-3.845266,-2.2342982,-9.193523
535,-3.735196,-2.1649063,-9.277572
536,-3.7710886,-2.2175484,-9.327821
537,-3.7806597,-2.2414765,-9.191131
538,-4.0776687,-2.3539393,-8.953942
539,-4.2260237,-2.4427729,-8.7266245
540,-4.434499,-2.6198416,-8.460722
541,-4.616652,-2.7086751,-8.257032
542,-4.698008,-2.929114,-8.115557
543,-4.781757,-3.1253254,-7.7946196
544,-4.7434716,-3.214159,-7.6510506
545,-4.6669016,-3.2883365,-7.5000033
546,-4.6094737,-3.3457642,-7.502396
547,-4.5014977,-3.3720853,-7.3803625
548,-4.276572,-3.336193,-7.2293153
549,-4.0178485,-3.266801,-7.1503525
550,-3.940979,-3.2380872,-7.1431737
551,-3.845266,-3.0846474,-7.2676005
552,-3.7591243,-2.9602208,-7.3178496
553,-3.7567315,-2.8522446,-7.401898
554,-3.7037904,-2.8235307,-7.4186473
555,-3.5793636,-2.7302105,-7.3657064
556,-3.505186,-2.6632116,-7.1838517
557,-3.4549367,-2.6608188,-7.030412
558,-3.3326037,-2.737389,-6.6424756
559,-3.2799616,-2.8785655,-6.3717875
560,-3.1890345,-2.8905299,-6.2111692
561,-3.1073792,-2.9602208,-6.0460644
562,-3.0332017,-2.9745777,-5.8184476
563,-2.9997022,-3.1420753,-5.68415
564,-2.990131,-3.2069805,-5.6937213
565,-3.0188448,-3.170789,-5.6674004
566,-3.0020952,-3.0798619,-5.8280187
567,-3.0092735,-2.9530423,-5.8854465
568,-2.9781668,-2.78046,-6.1968126
569,-2.9422746,-2.7493532,-6.3741803
570,-2.9327033,-2.615056,-6.65444
571,-2.9036903,-2.5169504,-6.8365936
572,-2.8701909,-2.4499512,-6.951449
573,-2.8295128,-2.3802602,-6.9945197
574,-2.8486555,-2.4858437,-6.922735
575,-3.0619156,-2.751746,-6.771688
576,-3.3086755,-2.972185,-6.680761
577,-3.4669008,-3.1492536,-6.6257257
578,-3.452544,-3.187838,-6.6927247
579,-3.4474592,-3.1660035,-6.8485575
580,-3.382853,-3.091826,-6.97777
581,-3.4187453,-3.0487552,-7.171888
582,-3.519543,-3.1061828,-7.181459
583,-3.6224344,-3.1348968,-7.279565
584,-3.612863,-3.161218,-7.3369923
585,-3.7328033,-3.0726833,-7.3226357
586,-3.7304106,-3.0583265,-7.2556367
587,-3.792624,-3.0966115,-7.279565
588,-3.8333018,-3.0990045,-7.315457
589,-3.8644085,-3.1468608,-7.4449687
590,-3.8500516,-3.1492536,-7.4401827
591,-3.7447674,-3.1013973,-7.6076803
592,-3.670291,-3.012863,-7.797013
593,-3.5482569,-2.8235307,-7.986345
594,-3.4740794,-2.7996025,-8.000702
595,-3.4402807,-2.7684958,-7.9743805
596,-3.572185,-2.929114,-8.194819
597,-3.6056845,-2.9650064,-8.201998
598,-3.7950168,-3.0391839,-8.350353
599,-4.063312,-3.065505,-8.568398
600,-4.223631,-2.9865417,-8.748159
601,-4.319643,-2.9530423,-8.772088
602,-4.482355,-2.926721,-8.724232
603,-4.731508,-2.8881369,-8.59472
604,-4.8658047,-2.8642087,-8.5372925
605,-4.9375896,-2.7732813,-8.558827
606,-5.0766726,-2.7230322,-8.9348
607,-4.9782677,-2.4906292,-9.238987
608,-4.781757,-2.1601207,-9.433105
609,-4.662116,-2.006681,-9.54826
610,-4.453641,-1.8053846,-9.706186
611,-4.247559,-1.6019948,-9.775578
612,-4.1518464,-1.5131612,-9.833304
613,-4.063312,-1.3983058,-10.01516
614,-4.0704904,-1.3600205,-10.154242
615,-4.046562,-1.2520444,-10.317253
616,-4.1638107,-1.1060823,-10.506286
617,-4.221238,-1.0606186,-10.5589285
618,-4.305286,-1.1324034,-10.5015
619,-4.5038905,-1.2161521,-10.33161
620,-4.621438,-1.2975081,-10.130314
621,-4.772186,-1.489233,-9.952946
622,-4.8299127,-1.5586249,-9.653543
623,-4.942375,-1.570589,-9.689436
624,-4.9232326,-1.4605191,-9.876375
625,-4.9136615,-1.3289139,-10.072886
626,-4.8993044,-1.230509,-10.384252
627,-4.9782677,-1.2113664,-10.587941
628,-5.0069814,-1.1324034,-10.832009
629,-5.1341,-1.1132607,-11.045269
630,-5.392824,-1.1515459,-11.08834
631,-5.536393,-1.1946167,-10.980663
632,-5.663512,-1.2855439,-10.822437
633,-5.682655,-1.474876,-10.575678
634,-5.677869,-1.5729818,-10.439287
635,-5.639584,-1.6546369,-10.273883
636,-5.663512,-1.6115661,-10.087243
637,-5.6060843,-1.5804594,-10.053743
638,-5.378467,-1.4940187,-10.295419
639,-5.2130632,-1.4270196,-10.590334
640,-4.9088755,-1.2424731,-10.942378
641,-4.6764727,-1.1682956,-11.215459
642,-4.3316073,-0.8353942,-11.545967
643,-3.9673,-0.526421,-11.7209425
644,-3.8811584,-0.48783672,-11.651252
645,-3.8548372,-0.50458646,-11.555539
646,-3.9987056,-0.53599226,-11.325529
647,-4.223631,-0.5599205,-11.146067
648,-4.482355,-0.6556334,-10.70519
649,-4.686044,-0.86171526,-10.204492
650,-4.9806604,-1.1395818,-9.60808
651,-5.0548377,-1.2640085,-9.3613205
652,-5.0548377,-1.340878,-9.169596
653,-5.0862436,-1.6498512,-8.834301
654,-4.9878387,-1.7455641,-8.853444
655,-4.918447,-1.8340986,-8.877372
656,-4.7916274,-1.8511474,-9.11456
657,-4.731508,-1.8029919,-9.116954
658,-4.4392843,-1.599602,-9.449855
659,-4.3005004,-1.3671991,-9.646365
660,-4.034598,-1.0028918,-9.799805
661,-3.8955152,-0.8808578,-9.809377
662,-3.8907297,-0.9095717,-9.828519
663,-3.8165522,-1.082154,-9.847662
664,-3.8907297,-1.2664014,-9.746864
665,-4.034598,-1.7120646,-9.500104
666,-4.1255255,-1.9061823,-9.275179
667,-4.295715,-2.0401804,-9.037991
668,-4.44407,-2.0928226,-8.9013
669,-4.5424747,-2.1095722,-8.978169
670,-4.578367,-1.977967,-9.028419
671,-4.604688,-1.9348962,-9.109775
672,-4.6022954,-1.8340986,-9.1002035
673,-4.5038905,-1.8511474,-9.02124
674,-4.4488554,-1.9827527,-8.85823
675,-4.4368916,-2.1720848,-8.760123
676,-4.4225345,-2.3108685,-8.733803
677,-4.4727836,-2.5552354,-8.666505
678,-4.4775696,-2.7110682,-8.664112
679,-4.458427,-2.713461,-8.635398
680,-4.4895334,-2.64377,-8.652147
681,-4.417749,-2.5935206,-8.6090765
682,-4.403392,-2.6270201,-8.625827
683,-4.3411784,-2.672783,-8.487042
684,-4.3316073,-2.7158537,-8.350353
685,-4.3316073,-2.8283165,-8.091629
686,-4.310072,-2.9913275,-7.789834
687,-4.3172503,-3.1396823,-7.3369923
688,-4.2837505,-3.2333016,-7.0543404
689,-4.1901317,-3.3266218,-6.7812595
690,-4.0968113,-3.362514,-6.7501526
691,-3.9242291,-3.4537404,-6.51775
692,-3.7998023,-3.5231323,-6.4531436
693,-3.5004005,-3.6164522,-6.4220366
694,-3.4043884,-3.6188452,-6.460322
695,-3.2440693,-3.6236308,-6.4866433
696,-3.0667014,-3.6044881,-6.5850477
697,-3.0619156,-3.554239,-6.5922265
698,-2.9398818,-3.4872398,-6.5922265
699,-2.8582265,-3.3074791,-6.735796
700,-2.8079774,-3.1372895,-6.7932234
701,-2.7816563,-2.7182465,-6.7405815
702,-2.9012976,-2.478665,-6.6017976
703,-3.0595229,-2.2438695,-6.369395
704,-3.2416766,-2.0904298,-6.1920266
705,-3.493222,-1.910968,-6.0026946
706,-3.694219,-1.8607187,-5.9356956
707,-3.8548372,-1.8655044,-5.863911
708,-3.9050865,-1.9755741,-5.811269
709,-3.8500516,-2.047359,-5.8806605
710,-3.696612,-2.2390838,-5.859125
711,-3.3661032,-2.603092,-5.9500527
712,-3.3206396,-2.7732813,-6.026623
713,-3.1914272,-3.075076,-6.0891356
714,-2.9662027,-3.3194432,-6.153742
715,-2.7792635,-3.4968112,-6.227919
716,-2.6186452,-3.58056,-6.3574305
717,-2.434398,-3.6667016,-6.558428
718,-2.434398,-3.702594,-6.754938
719,-2.48704,-3.757928,-6.8892355
720,-2.568396,-3.743571,-7.085447
721,-2.5851457,-3.6523447,-7.1694946
722,-2.678765,-3.4510484,-7.3585277
723,-2.757728,-3.2069805,-7.557431
724,-2.7936203,-3.0487552,-7.6749787
725,-3.0116663,-2.861816,-7.7994056
726,-3.1193435,-2.7589245,-7.899904
727,-3.3517463,-2.656033,-7.993523
728,-3.5865421,-2.5648067,-8.223534
729,-3.6343985,-2.5432713,-8.309675
730,-3.7686956,-2.481058,-8.463115
731,-3.9098723,-2.4571297,-8.549256
732,-3.9720855,-2.3659034,-8.539685
733,-3.9915273,-2.3204398,-8.316854
734,-4.0298123,-2.4738796,-8.261818
735,-4.221238,-2.6799614,-8.122736
736,-4.3651066,-2.8666015,-7.9887376
737,-4.511069,-3.0726833,-7.899904
738,-4.5281177,-3.2165518,-7.9719877
739,-4.537689,-3.1683962,-8.245069
740,-4.4656053,-2.9769704,-8.633005
741,-4.4608197,-2.6895328,-8.965906
742,-4.424927,-2.4236302,-9.246465
743,-4.403392,-2.1242282,-9.476176
744,-4.400999,-1.910968,-9.529117
745,-4.228417,-1.5900307,-9.579367
746,-4.147061,-1.4868401,-9.682258
747,-4.0920258,-1.2951152,-9.75165
748,-4.1087756,-1.2759727,-9.68465
749,-4.106383,-1.3456637,-9.529117
750,-4.115954,-1.6067804,-9.320642
751,-4.0920258,-1.8245273,-9.28475
752,-4.0585265,-2.0138593,-9.31825
753,-3.9457645,-2.179263,-9.4019985
754,-3.9864426,-2.2606192,-9.639187
755,-4.0824547,-2.248655,-10.166206
756,-4.147061,-2.1194427,-10.465608
757,-4.1757746,-1.8607187,-10.745868
758,-4.237988,-1.1802598,-11.153245
759,-4.3292146,-0.8282157,-11.246566
760,-4.633402,-0.6771688,-11.203495
761,-5.0045886,-0.80189466,-10.947164
762,-5.265705,-0.9239286,-10.616655
763,-5.517251,-1.0100702,-10.307383
764,-5.5483575,-0.97178507,-10.070493
765,-5.486144,-0.9765707,-10.012766
766,-5.36411,-0.9502497,-9.873982
767,-5.1029935,-0.9382856,-9.761221
768,-4.88734,-1.0148559,-9.943375
769,-4.659723,-1.1682956,-10.115957
770,-4.5687957,-1.4916258,-10.357931
771,-4.6788654,-1.774278,-10.724332
772,-4.6788654,-1.8726828,-11.033305
773,-4.6669016,-1.7838492,-11.416755
774,-4.731508,-1.6474584,-11.440683
775,-4.7769713,-1.4988043,-11.323136
776,-4.9256253,-1.2735798,-11.114661
777,-5.0141597,-1.1156535,-10.978271
778,-5.091029,-0.8258229,-10.733903
779,-5.038088,-0.65324056,-10.659726
780,-5.0452666,-0.43998027,-10.693225
781,-4.944768,-0.35383865,-10.698011
782,-4.788935,-0.40408793,-10.750653
783,-4.686044,-0.5838487,-10.848759
784,-4.499105,-0.72023964,-11.006984
785,-4.307679,-0.86889374,-10.856236
786,-4.1422753,-1.0654043,-10.698011
787,-4.065705,-1.1682956,-10.554143
788,-4.0274196,-1.3046865,-10.434502
789,-4.099204,-1.4365909,-10.249955
790,-4.1590247,-1.4413766,-9.957731
791,-4.456034,-1.4318053,-9.629616
792,-4.7027936,-1.4198412,-9.380463
793,-5.0309095,-1.434198,-9.203095
794,-5.229813,-1.474876,-9.05474
795,-5.3306108,-1.4940187,-8.925228
796,-5.4095736,-1.570589,-8.817552
797,-5.4311094,-1.599602,-8.839087
798,-5.352146,-1.6115661,-8.750552
799,-5.2752767,-1.6713866,-8.760123
800,-5.0572305,-1.7359928,-8.796016
801,-4.901697,-1.8197416,-8.973084
802,-4.7434716,-1.8005991,-9.193523
803,-4.441677,-1.7694924,-9.39482
804,-4.281358,-1.7144574,-9.4019985
805,-4.154239,-1.7096717,-9.346964
806,-3.940979,-1.6354942,-9.323035
807,-3.8955152,-1.625923,-9.25125
808,-3.888337,-1.4174483,-9.296714
809,-3.9673,-1.2903296,-9.2126665
810,-4.173382,-1.1491531,-9.234201
811,-4.3292146,-1.0989038,-9.256036
812,-4.4057846,-1.1802598,-9.205488
813,-4.5158544,-1.3094722,-9.097811
814,-4.5448675,-1.6378871,-8.963513
815,-4.499105,-2.059323,-8.673683
816,-4.4895334,-2.3108685,-8.513364
817,-4.4632125,-2.4332016,-8.42453
818,-4.4727836,-2.5959134,-8.436495
819,-4.3674994,-2.672783,-8.295318
820,-4.336393,-2.6632116,-8.204391
821,-4.187739,-2.5911279,-8.029415
822,-4.139882,-2.5289145,-8.038987
823,-3.9098723,-2.315654,-8.072486
824,-3.6918263,-2.1649063,-8.091629
825,-3.4740794,-2.2534406,-8.046165
826,-3.3876386,-2.5265217,-7.8089767
827,-3.2560334,-2.9745777,-7.5717883
828,-3.2943187,-3.242873,-7.495218
829,-3.3038898,-3.336193,-7.5215387
830,-3.3780673,-3.58056,-7.5981092
831,-3.4450665,-3.8153558,-7.746763
832,-3.4908292,-3.8321054,-7.873583
833,-3.5267215,-3.7531424,-7.87119
834,-3.5769708,-3.6308093,-8.027022
835,-3.6320057,-3.374478,-7.7994056
836,-3.7974095,-3.2572298,-7.682157
837,-3.940979,-3.144468,-7.5670023
838,-4.237988,-3.0607193,-7.1694946
839,-4.5975094,-2.9985058,-7.001698
840,-4.6836514,-2.9578278,-6.882057
841,-4.9088755,-2.7326035,-6.5105715
842,-4.8658047,-2.6198416,-6.4005013
843,-4.6692944,-2.44038,-5.9620166
844,-4.4656053,-2.3419752,-5.8950176
845,-4.0441694,-2.2127628,-5.9356956
846,-3.5650067,-2.1768703,-6.0987067
847,-3.0020952,-2.1314068,-6.3335023
848,-2.6548367,-2.097608,-6.474679
849,-2.228316,-2.097608,-6.587441
850,-1.7778672,-2.1864417,-6.786045
851,-1.3995022,-2.3300111,-7.0399833
852,-1.3181462,-2.3802602,-7.085447
853,-1.183849,-2.7326035,-7.126424
854,-1.1335998,-3.1229327,-7.2125654
855,-1.3181462,-3.4872398,-7.099804
856,-1.5215361,-3.661916,-6.949056
857,-1.91695,-3.6930227,-6.843772
858,-2.4415765,-3.731607,-6.5946193
859,-2.8031917,-3.7145581,-6.4411793
860,-3.3804603,-3.6906297,-6.541678
861,-3.6918263,-3.6068811,-6.7166533
862,-3.8787656,-3.4199417,-6.8796644
863,-4.1901317,-3.1253254,-7.1359954
864,-4.307679,-2.9168508,-7.097411
865,-4.3794637,-2.7038896,-7.099804
866,-4.391428,-2.5648067,-7.016055
867,-4.374678,-2.4762723,-7.1168528
868,-4.1997027,-2.4236302,-7.394719
869,-4.1422753,-2.4212375,-7.5957165
870,-3.979264,-2.521736,-7.873583
871,-3.8620157,-2.6006992,-8.027022
872,-3.6870406,-2.6799614,-8.209176
873,-3.4187453,-2.7445676,-8.383852
874,-3.3038898,-2.7852457,-8.376674
875,-3.1866415,-2.8091738,-8.309675
876,-3.100201,-2.9243283,-8.257032
877,-3.2321053,-3.0535407,-8.221141
878,-3.4474592,-3.1803603,-8.180463
879,-3.5817564,-3.3074791,-8.132307
880,-3.888337,-3.3720853,-8.245069
881,-3.9696927,-3.431906,-8.280961
882,-4.2020955,-3.266801,-8.405388
883,-4.362714,-2.9817562,-8.494222
884,-4.511069,-2.5815566,-8.743374
885,-4.779364,-2.07368,-9.006884
886,-4.8969116,-1.9205393,-9.090632
887,-5.1675997,-1.5490535,-9.303893
888,-5.5794644,-1.2951152,-9.363713
889,-5.7687964,-1.0869397,-9.140882
890,-6.0083776,-1.1563315,-8.867801
891,-5.977271,-1.2951152,-8.544471
892,-5.8525453,-1.3887345,-8.496614
893,-5.598906,-1.4868401,-8.570791
894,-5.217849,-1.4581263,-8.841479
895,-4.741079,-1.3983058,-9.193523
896,-4.10399,-1.2257234,-9.68465
897,-3.6583266,-1.1587243,-10.012766
898,-2.9805596,-1.1587243,-10.640583
899,-2.652444,-1.2999009,-11.016556
900,-2.527718,-1.4605191,-11.380564
901,-2.4487548,-1.8631115,-12.02513
902,-2.5181468,-1.977967,-12.204891
903,-2.865405,-2.0425732,-12.173485
904,-3.481258,-1.8822541,-11.929418
905,-4.424927,-1.5514464,-11.524432
906,-4.8179483,-1.4270196,-11.3016
907,-5.8911295,-1.2089736,-10.753046
908,-6.381957,-1.1682956,-10.523036
909,-6.9475603,-1.0268201,-10.278668
910,-7.2613196,-0.8353942,-10.051351
911,-7.440781,-0.71306115,-9.766006
912,-7.4527454,-0.72023964,-9.706186
913,-7.3881392,-0.84735835,-9.4737835
914,-7.0576305,-1.204188,-9.806984
915,-6.6622167,-1.4294125,-10.319646
916,-6.235995,-1.5011971,-10.681261
917,-5.879165,-1.407877,-10.954342
918,-5.510072,-1.3289139,-11.1269245
919,-4.961518,-1.1826526,-11.330315
920,-4.729115,-1.1204392,-11.452647
921,-4.403392,-0.9765707,-11.577074
922,-4.2308097,-0.9167502,-11.502896
923,-4.2068815,-0.8545368,-11.289637
924,-4.3124647,-0.878465,-10.848759
925,-4.377071,-0.959821,-10.477572
926,-4.633402,-1.1874382,-9.840483
927,-4.7578287,-1.2783655,-9.6224375
928,-5.042874,-1.4461622,-9.176774
929,-5.165207,-1.4413766,-9.018847
930,-5.148457,-1.326521,-8.978169
931,-4.975875,-1.1778669,-8.851051
932,-4.7099724,-1.1754742,-8.784052
933,-4.494319,-1.2783655,-8.678469
934,-4.276572,-1.4198412,-8.67129
935,-4.0202413,-1.6307086,-8.70479
936,-3.749553,-1.7838492,-8.834301
937,-3.5339,-1.8846469,-9.014062
938,-3.301497,-1.9348962,-9.160025
939,-2.9973094,-1.9899311,-9.387642
940,-2.8462625,-1.8966111,-9.54826
941,-2.8175488,-1.841277,-9.6631155
942,-2.8342984,-1.7288144,-9.847662
943,-3.138486,-1.7359928,-9.96491
944,-3.2823544,-1.7766708,-9.9960165
945,-3.739982,-2.047359,-9.8835535
946,-4.336393,-2.1361923,-9.538689
947,-4.67408,-2.2223341,-9.325428
948,-5.035695,-2.2869403,-9.047562
949,-5.311169,-2.2414765,-8.702396
950,-5.5483575,-2.1888344,-8.340781
951,-5.61087,-2.1625135,-8.16102
952,-5.658726,-2.169692,-8.000702
953,-5.5722857,-2.179263,-8.048558
954,-5.419145,-2.207977,-8.077271
955,-4.9567323,-2.3515465,-8.245069
956,-4.4656053,-2.5241287,-8.5372925
957,-4.2717867,-2.574378,-8.676076
958,-3.6511483,-2.6126633,-9.179167
959,-3.1719856,-2.5719852,-9.51476
960,-2.9805596,-2.5552354,-9.632009
961,-2.6282165,-2.4690938,-9.679865
962,-2.4774687,-2.4690938,-9.517153
963,-2.4320052,-2.4595225,-9.078669
964,-2.4990041,-2.3949163,-8.831908
965,-2.7433712,-2.2917259,-8.414959
966,-2.9542387,-2.2271197,-7.9743805
967,-3.1217363,-2.2103698,-7.753942
968,-3.3230324,-2.3084757,-7.495218
969,-3.4402807,-2.478665,-7.4042907
970,-3.4764721,-2.6679974,-7.3803625
971,-3.4307094,-2.7900312,-7.4306116
972,-3.3206396,-3.0200412,-7.614859
973,-3.1743784,-3.4247274,-7.682157
974,-3.1073792,-3.7268212,-7.708478
975,-3.1695926,-3.822534,-7.713264
976,-3.222534,-4.191328,-7.7108707
977,-3.2871401,-4.3351965,-7.713264
978,-3.5027933,-4.165007,-7.7706914
979,-3.7157545,-3.918247,-7.751549
980,-3.9098723,-3.5709887,-7.545467
981,-4.173382,-3.1492536,-7.5382886
982,-4.56401,-2.5504498,-7.5813594
983,-4.698008,-2.289333,-7.3657064
984,-4.8083773,-2.1071794,-7.2508507
985,-4.8969116,-2.0114665,-6.9442706
986,-4.8562336,-1.9707886,-6.599405
987,-4.7099724,-1.9492532,-6.316753
988,-4.247559,-1.9875383,-6.014659
989,-4.036991,-2.0210378,-5.983552
990,-3.4474592,-2.1218355,-5.9931235
991,-2.9973094,-2.2438695,-6.153742
992,-2.6620152,-2.4188447,-6.259026
993,-2.3913271,-2.6126633,-6.4292154
994,-2.0294127,-2.8666015,-6.527321
995,-1.9265213,-3.0391839,-6.5440707
996,-1.5550356,-3.3553355,-6.7645097
997,-1.3971093,-3.4633117,-6.8099732
998,-1.2771691,-3.6140594,-6.8195443
999,-1.1766706,-3.5733814,-6.8724856
1000,-1.090529,-3.5470605,-7.083054
1001,-1.1670992,-3.5063825,-7.124031
1002,-1.3995022,-3.3266218,-7.315457
1003,-1.9648064,-3.1420753,-7.442576
1004,-2.2642083,-3.1157541,-7.545467
1005,-2.7194428,-3.1301112,-7.648658
1006,-3.1432717,-3.0008986,-7.7706914
1007,-3.4549367,-2.929114,-7.847262
1008,-3.7686956,-2.806781,-7.8352976
1009,-3.9649072,-2.6006992,-7.7300134
1010,-4.046562,-2.4236302,-7.5263247
1011,-4.072883,-2.3300111,-7.3178496
1012,-4.0704904,-2.3635106,-7.2699933
1013,-4.1255255,-2.4930222,-7.305886
1014,-4.075276,-2.6461627,-7.4473615
1015,-3.9170506,-2.8139594,-7.725228
1016,-3.6200416,-2.943471,-7.847262
1017,-3.3661032,-2.8689942,-8.031808
1018,-3.2392836,-2.900101,-8.098807
1019,-3.095415,-2.9793632,-8.082058
1020,-3.1480572,-3.1301112,-8.110771
1021,-3.289533,-3.2476585,-8.247461
1022,-3.4426737,-3.2596226,-8.369495
1023,-3.5291142,-3.2380872,-8.510971
1024,-3.5745778,-3.0200412,-8.82473
1025,-3.5626137,-2.6799614,-9.215059
1026,-3.5865421,-2.3012972,-9.569795
1027,-3.6439698,-1.8774685,-9.897911
1028,-3.6750765,-1.5275182,-10.096814
1029,-3.8141594,-1.218545,-10.192527
1030,-3.95055,-1.1108679,-10.01516
1031,-4.0968113,-1.1371889,-9.9553385
1032,-4.4488554,-1.4940187,-9.517153
1033,-4.5544386,-1.666601,-9.282357
1034,-4.604688,-1.9564316,-8.812766
1035,-4.3818564,-2.047359,-8.532506
1036,-4.240381,-2.1023939,-8.383852
1037,-4.025027,-2.1242282,-8.431708
1038,-3.9768713,-2.2055843,-8.774481
1039,-4.0106697,-2.1720848,-9.28475
1040,-4.0034914,-2.0377877,-9.818948
1041,-3.9625144,-1.8655044,-10.317253
1042,-3.9290147,-1.7647067,-10.619048
1043,-4.025027,-1.6642082,-10.769795
1044,-4.1518464,-1.7383857,-10.585548
1045,-4.415356,-1.8990039,-10.259526
1046,-4.5975094,-2.0234306,-9.91466
1047,-4.712365,-1.8750757,-9.639187
1048,-4.5544386,-1.4533406,-9.572187
1049,-4.2981076,-0.96460664,-9.689436
1050,-4.089633,-0.6580262,-9.895518
1051,-3.7974095,-0.37537405,-10.324431
1052,-3.6631124,-0.29641092,-10.595119
1053,-3.4043884,-0.3610171,-11.038091
1054,-3.1890345,-0.4112664,-11.627323
1055,-3.0786655,-0.6221339,-12.163914
1056,-3.0810583,-0.9957133,-12.683755
1057,-3.1815567,-1.5107684,-13.148561
1058,-3.3493536,-1.8487546,-13.203595
1059,-3.940979,-2.0210378,-12.851551
1060,-4.6357946,-2.1601207,-12.32214
1061,-5.091029,-2.1649063,-11.991631
1062,-5.500501,-2.097608,-11.68505
1063,-6.18096,-1.8005991,-11.155639
1064,-6.573682,-1.2903296,-10.882557
1065,-6.7343,-0.7106683,-10.657333
1066,-6.7630143,-0.19561325,-10.175777
1067,-6.7893353,0.09182457,-9.8524475
1068,-6.7199435,0.17796618,-9.502497
1069,-6.561718,0.15164514,-9.390035
1070,-6.125626,0.024526432,-9.387642
1071,-5.4981084,-0.35862428,-9.670294
1072,-4.590331,-0.8880363,-10.154242
1073,-4.147061,-1.1276177,-10.314561
1074,-3.572185,-1.4509479,-10.472787
1075,-2.8989046,-1.6977077,-10.578071
1076,-2.3841486,-1.7527425,-10.595119
1077,-2.053341,-1.7838492,-10.570892
1078,-1.9073788,-1.7766708,-10.515858
1079,-1.9145572,-1.7575282,-10.539785
1080,-2.0676978,-1.678565,-10.583156
1081,-2.5588248,-1.692922,-10.326824
1082,-2.8462625,-1.7814565,-10.161421
1083,-3.2799616,-1.7910278,-9.905089
1084,-3.6367912,-1.6283158,-9.629616
1085,-3.95055,-1.5083755,-9.299107
1086,-4.1422753,-1.2951152,-9.133703
1087,-4.3172503,-1.1395818,-9.071489
1088,-4.3411784,-0.9741779,-9.026026
1089,-4.360321,-0.8856435,-9.116954
1090,-4.3483567,-0.8282157,-9.382855
1091,-4.3316073,-0.85214394,-9.651151
1092,-4.374678,-1.0435698,-9.627223
1093,-4.5014977,-1.4030914,-9.406784
1094,-4.700401,-2.0688944,-9.030811
1095,-4.769793,-2.2606192,-8.829515
1096,-4.834698,-2.5695925,-8.510971
1097,-4.6142592,-2.6198416,-8.27139
1098,-4.4751763,-2.6512475,-8.187641
1099,-4.2574296,-2.6823542,-8.295318
1100,-4.223631,-2.631806,-8.357532
1101,-3.912265,-2.44038,-8.599505
1102,-3.5865421,-2.1095722,-8.740981
1103,-3.464508,-2.0138593,-8.812766
1104,-3.3900316,-1.9564316,-8.975478
1105,-3.3062828,-1.9875383,-8.894122
1106,-3.234498,-2.018645,-8.851051
1107,-3.1504502,-2.1529422,-8.848659
1108,-3.100201,-2.2031915,-8.88455
1109,-3.0690942,-2.3204398,-8.793623
1110,-3.0236306,-2.483451,-8.690433
1111,-2.9446673,-2.7038896,-8.621041
1112,-2.9279177,-2.914458,-8.506186
1113,-2.9084759,-3.1348968,-8.463115
1114,-2.8486555,-3.214159,-8.448758
1115,-2.8175488,-3.1902308,-8.438888
1116,-2.8342984,-3.1253254,-8.395817
1117,-2.9805596,-2.9793632,-8.312068
1118,-3.1767712,-2.8833513,-8.213962
1119,-3.493222,-2.8833513,-8.00788
1120,-3.737589,-2.929114,-7.85444
1121,-3.9816568,-3.0607193,-7.68455
1122,-4.2574296,-3.185445,-7.442576
1123,-4.41057,-3.2620156,-7.3417783
1124,-4.540082,-3.2787652,-7.1192455
1125,-4.645366,-3.2715867,-6.949056
1126,-4.631009,-3.1348968,-6.63769
1127,-4.575974,-2.8402805,-6.340681
1128,-4.5616174,-2.6270201,-6.2470617
1129,-4.345964,-2.3252254,-6.268597
1130,-4.1422753,-2.1000009,-6.4028945
1131,-3.871587,-1.9947168,-6.4363937
1132,-3.6056845,-1.9277177,-6.460322
1133,-3.2368908,-1.8364913,-6.460322
1134,-3.0212376,-1.841277,-6.448358
1135,-2.6691937,-1.9325033,-6.5850477
1136,-2.3889344,-2.0712872,-6.527321
1137,-2.3455644,-2.1816561,-6.4818573
1138,-2.2809582,-2.4044876,-6.580262
1139,-2.2474587,-2.629413,-6.6161547
1140,-2.1131616,-2.902494,-6.6975107
1141,-2.1131616,-2.9793632,-6.8075805
1142,-2.105983,-3.1109686,-6.74776
1143,-2.3790638,-3.3290145,-6.7525454
1144,-2.4942186,-3.4561331,-6.7645097
1145,-2.6859434,-3.4776685,-6.73101
1146,-3.0236306,-3.4151561,-6.640083
1147,-3.1049864,-3.202195,-6.7645097
1148,-3.1914272,-3.0176485,-7.006484
1149,-3.263212,-2.7996025,-7.1503525
1150,-3.3900316,-2.5337,-7.435397
1151,-3.4860435,-2.478665,-7.425826
1152,-3.7543387,-2.5432713,-7.289136
1153,-4.0513477,-2.7684958,-7.1766734
1154,-4.0776687,-2.7876384,-7.19103
1155,-4.075276,-2.821138,-7.3011003
1156,-3.9649072,-2.8283165,-7.409076
1157,-3.62722,-3.012863,-7.6076803
1158,-3.423531,-3.1540394,-7.8017983
1159,-3.1719856,-3.202195,-8.096415
1160,-3.0475588,-3.202195,-8.216354
1161,-2.8438697,-3.1683962,-8.5014
1162,-2.8103702,-3.1109686,-8.647362
1163,-2.7266214,-3.0822546,-8.656933
1164,-2.676372,-2.8713872,-8.65454
1165,-2.7074788,-2.8091738,-8.592327
1166,-2.8773692,-2.7349963,-8.388638
1167,-3.3206396,-2.8307092,-8.058129
1168,-3.7854455,-3.1348968,-7.9480596
1169,-4.0130625,-3.2739797,-7.9767733
1170,-4.518247,-3.539882,-7.943274
1171,-4.772186,-3.5350964,-8.175676
1172,-4.889733,-2.9626136,-8.673683
1173,-4.9375896,-2.5145576,-8.946764
1174,-4.877769,-1.8990039,-9.306286
1175,-4.813163,-1.474876,-9.445069
1176,-4.834698,-1.326521,-9.406784
1177,-4.9663033,-1.3432708,-9.167203
1178,-5.0045886,-1.407877,-8.990134
1179,-4.853841,-1.448555,-8.872586
1180,-4.499105,-1.4988043,-8.855837
1181,-4.0441694,-1.5804594,-9.05474
1182,-3.4331024,-1.6187445,-9.320642
1183,-3.1815567,-1.692922,-9.485747
1184,-2.8773692,-1.678565,-9.780663
1185,-2.7026932,-1.7024933,-10.099207
1186,-2.623431,-1.7001005,-10.276276
1187,-2.611467,-1.7024933,-10.640583
1188,-2.7960134,-1.6426728,-11.100305
1189,-3.2703903,-1.5876378,-11.07159
1190,-3.452544,-1.5900307,-11.093125
1191,-4.065705,-1.5179468,-10.8682
1192,-4.415356,-1.3648062,-10.729117
1193,-4.8586264,-1.1491531,-10.365109
1194,-5.0886364,-1.0606186,-10.161421
1195,-5.395217,-1.07019,-9.936196
1196,-5.7951174,-1.1563315,-9.950553
1197,-5.895915,-1.2400804,-9.9553385
1198,-5.898308,-1.50359,-10.434502
1199,-5.5746784,-1.5323038,-11.030912
1200,-5.366503,-1.489233,-11.2393875
1201,-4.983053,-1.3289139,-11.636895
1202,-4.6836514,-1.1730813,-11.819048
1203,-4.4201417,-1.0725827,-11.85494
1204,-4.3172503,-1.1012967,-11.886047
1205,-4.369892,-1.1970096,-11.895618
1206,-4.441677,-1.3070793,-11.826227
1207,-4.4967117,-1.3384851,-11.752049
1208,-4.578367,-1.2568301,-11.706586
1209,-4.5305104,-1.0316057,-11.622538
1210,-4.5206404,-0.8258229,-11.483754
1211,-4.44407,-0.6053841,-11.45504
1212,-4.4057846,-0.4543372,-11.402398
1213,-4.4057846,-0.4543372,-11.402398
1214,-4.2909293,-0.28923243,-11.244173
1215,-4.2068815,-0.2844468,-11.155639
1216,-3.9864426,-0.42562333,-10.767403
1217,-3.9720855,-0.57427746,-10.463215
1218,-4.046562,-0.9933205,-10.125528
1219,-4.2598224,-1.4222339,-9.703794
1220,-4.4225345,-1.8245273,-9.418748
1221,-4.5038905,-2.0641086,-9.366106
1222,-4.4871407,-2.07368,-9.3613205
1223,-4.384249,-1.9468603,-9.423533
1224,-4.2837505,-1.6857436,-9.596116
1225,-4.305286,-1.4796617,-9.670294
1226,-4.35075,-1.3289139,-9.68465
1227,-4.42732,-1.1491531,-9.48814
1228,-4.619045,-1.1491531,-9.143274
1229,-4.67408,-1.2257234,-8.851051
1230,-4.7267222,-1.3313067,-8.717052
1231,-4.6094737,-1.5828521,-8.479864
1232,-4.4775696,-1.707279,-8.568398
1233,-4.3316073,-1.7694924,-8.680861
1234,-3.897908,-1.9420747,-8.9348
1235,-3.5410783,-1.9037895,-9.174381
1236,-3.246462,-1.8053846,-9.430713
1237,-3.0403802,-1.7264216,-9.670294
1238,-2.8773692,-1.5370895,-10.046266
1239,-2.8438697,-1.4198412,-10.228419
1240,-2.9973094,-1.4246268,-10.163814
1241,-3.1313076,-1.4365909,-10.072886
1242,-3.7013974,-1.5753746,-9.632009
1243,-4.2717867,-1.8364913,-8.956335
1244,-4.482355,-1.9899311,-8.68804
1245,-4.7745786,-2.2989044,-8.266604
1246,-4.9926243,-2.6512475,-7.9648094
1247,-5.0189457,-2.9769704,-7.763513
1248,-4.880162,-3.187838,-7.873583
1249,-4.5951166,-3.118147,-8.077271
1250,-4.429713,-3.0391839,-8.1586275
1251,-3.9098723,-2.7613173,-8.446364
1252,-3.5099716,-2.6222346,-8.668898
1253,-3.3206396,-2.5265217,-8.803194
1254,-3.246462,-2.4690938,-8.879765
1255,-3.2201412,-2.4595225,-8.975478
1256,-3.1552358,-2.3659034,-8.932407
1257,-3.1337004,-2.3419752,-8.829515
1258,-3.263212,-2.5528426,-8.338388
1259,-3.3517463,-2.6461627,-8.230712
1260,-3.3206396,-2.8546374,-8.012666
1261,-3.3780673,-2.9817562,-7.8257265
1262,-3.3254254,-3.2644083,-7.586145
1263,-3.2679975,-3.4561331,-7.4330044
1264,-3.2129626,-3.5781672,-7.449754
1265,-3.0116663,-3.5901313,-7.519146
1266,-2.8773692,-3.566203,-7.5813594
1267,-2.6811578,-3.293122,-7.610073
1268,-2.5588248,-3.1109686,-7.5693955
1269,-2.635395,-3.0487552,-7.428219
1270,-2.6979074,-2.9673991,-7.368099
1271,-2.8917263,-2.9096723,-7.099804
1272,-3.0284162,-2.7613173,-6.9275208
1273,-3.083451,-2.6512475,-6.719046
1274,-3.1360931,-2.5839493,-6.580262
1275,-3.1671999,-2.2845473,-6.2231336
1276,-3.071487,-1.9683957,-6.0050874
1277,-2.990131,-1.910968,-5.9859447
1278,-2.824727,-1.7431713,-6.093921
1279,-2.6401806,-1.6761723,-6.383752
1280,-2.4798615,-1.87029,-6.7501526
1281,-2.3889344,-1.9803598,-6.975377
1282,-2.3694925,-2.2797618,-7.305886
1283,-2.3168504,-2.5313072,-7.4712896
1284,-2.4535406,-2.7038896,-7.550253
1285,-2.501397,-2.8833513,-7.45454
1286,-2.705086,-3.0702906,-7.262815
1287,-2.9255247,-3.2356944,-7.025626
1288,-3.3876386,-3.441477,-6.65444
1289,-3.4139597,-3.4366915,-6.613762
1290,-3.682255,-3.431906,-6.5464635
1291,-3.7256248,-3.2763724,-6.5464635
1292,-3.6463625,-3.1396823,-6.680761
1293,-3.5745778,-2.972185,-6.8892355
1294,-3.4187453,-2.926721,-7.112067
1295,-3.2177482,-2.9243283,-7.2508507
1296,-3.0020952,-2.8498518,-7.43779
1297,-2.8725836,-2.7469604,-7.576574
1298,-2.8701909,-2.7062824,-7.6340017
1299,-2.879762,-2.672783,-7.7826557
1300,-3.0236306,-2.7493532,-7.9097743
1301,-3.2249267,-2.861816,-7.9408813
1302,-3.4716866,-2.9769704,-7.9504523
1303,-3.588935,-2.984149,-7.8664045
1304,-3.679862,-2.9745777,-7.8496547
1305,-3.7806597,-2.78046,-7.763513
1306,-3.912265,-2.6632116,-7.749156
1307,-4.008277,-2.603092,-7.8233337
1308,-4.0561333,-2.6102705,-7.818548
1309,-4.154239,-2.6632116,-7.9648094
1310,-4.221238,-2.7565317,-8.120343
1311,-4.115954,-2.7565317,-8.163414
1312,-4.0704904,-2.8642087,-8.209176
1313,-4.0704904,-2.8642087,-8.209176
1314,-3.8333018,-3.0798619,-8.556435
1315,-3.7830527,-3.065505,-8.729017
1316,-3.6367912,-2.9793632,-8.949157
1317,-3.493222,-2.6608188,-9.24138
1318,-3.423531,-2.236691,-9.557831
1319,-3.4426737,-1.7599211,-9.938589
1320,-3.521936,-1.3911272,-10.42493
1321,-3.5554354,-1.2329018,-10.647761
1322,-3.708576,-1.0028918,-10.815259
1323,-3.8787656,-0.9693923,-10.784153
1324,-4.278965,-1.0654043,-10.506286
1325,-4.458427,-1.2257234,-10.192527
1326,-4.631009,-1.340878,-9.857233
1327,-4.7578287,-1.4318053,-9.413962
1328,-4.7506504,-1.585245,-9.176774
1329,-4.64058,-1.7001005,-9.006884
1330,-4.5038905,-1.6977077,-9.035598
1331,-4.451248,-1.6618153,-9.1719885
1332,-4.2981076,-1.6187445,-9.509675
1333,-4.1757746,-1.5131612,-9.770792
1334,-4.10399,-1.4796617,-10.036695
1335,-4.022634,-1.4174483,-10.360324
1336,-3.9987056,-1.3576277,-10.741082
1337,-3.9987056,-1.3360924,-10.836795
1338,-3.9963129,-1.2903296,-10.880164
1339,-4.0824547,-1.082154,-10.889736
1340,-4.240381,-1.0435698,-10.750653
1341,-4.467998,-1.0797613,-10.592727
1342,-4.8394837,-1.2281163,-10.436894
1343,-5.0548377,-1.2711871,-10.350753
1344,-5.191528,-1.3432708,-10.240383
1345,-5.1604214,-1.3384851,-10.192527
1346,-5.0790653,-1.340878,-10.031909
1347,-5.042874,-1.4174483,-10.087243
1348,-4.935197,-1.4557334,-10.283454
1349,-4.8442693,-1.5442679,-10.470394
1350,-4.6142592,-1.6426728,-10.702797
1351,-4.3818564,-1.5299109,-11.006984
1352,-4.19731,-1.3935201,-11.203495
1353,-3.8668015,-0.9981061,-11.469398
1354,-3.5841491,-0.6269195,-11.615359
1355,-3.5027933,-0.49501517,-11.749657
1356,-3.5626137,-0.5838487,-11.81187
1357,-3.7663028,-0.79710907,-11.747264
1358,-4.022634,-0.959821,-11.545967
1359,-4.286144,-0.8952148,-11.3016
1360,-4.3890347,-0.7106683,-10.928021
1361,-4.499105,-0.526421,-10.477572
1362,-4.5134616,-0.55752766,-10.379466
1363,-4.5134616,-0.55752766,-10.379466
1364,-4.5951166,-0.85214394,-9.859626
1365,-4.592724,-0.9957133,-9.749257
1366,-4.525725,-1.2640085,-9.615258
1367,-4.4225345,-1.4006985,-9.627223
1368,-4.336393,-1.4413766,-9.8117695
1369,-4.295715,-1.462912,-9.885947
1370,-4.1111684,-1.2807583,-9.974482
1371,-3.8955152,-1.3121641,-10.003195
1372,-3.7686956,-1.2520444,-9.912268
1373,-3.7447674,-1.2233306,-9.893126
1374,-3.7615173,-1.1204392,-9.732507
1375,-3.912265,-1.1132607,-9.529117
1376,-4.0968113,-1.096511,-9.5048895
1377,-4.35075,-1.1371889,-9.349357
1378,-4.42732,-1.2017952,-9.162417
1379,-4.688437,-1.3576277,-9.08824
1380,-4.7578287,-1.3887345,-9.030811
1381,-4.8442693,-1.407877,-8.95155
1382,-4.7027936,-1.3336995,-8.990134
1383,-4.5014977,-1.2257234,-9.169596
1384,-4.3962135,-1.2783655,-9.2488575
1385,-4.1087756,-1.340878,-9.34457
1386,-3.9074793,-1.625923,-9.334999
1387,-3.8644085,-1.6737795,-9.313464
1388,-3.8644085,-1.6737795,-9.313464
1389,-3.7758741,-2.1119652,-9.231809
1390,-3.76391,-2.2510478,-9.253643
1391,-3.7998023,-2.3371894,-9.186345
1392,-3.8333018,-2.265405,-9.1719885
1393,-3.9194436,-2.07368,-9.282357
1394,-3.9673,-1.8583258,-9.325428
1395,-3.9720855,-1.719243,-9.24138
1396,-4.0537405,-1.7001005,-9.155238
1397,-4.2260237,-1.8101703,-9.045169
1398,-4.322036,-1.9181465,-8.922835
1399,-4.5158544,-2.2271197,-8.664112
1400,-4.518247,-2.370689,-8.733803
1401,-4.573581,-2.5648067,-8.625827
1402,-4.491926,-2.629413,-8.659326
1403,-4.35075,-2.6270201,-8.666505
1404,-4.1350965,-2.5719852,-8.815159
1405,-3.900301,-2.5169504,-8.865408
1406,-3.7061832,-2.6126633,-8.865408
1407,-3.531507,-2.713461,-8.865408
1408,-3.4908292,-2.8139594,-8.776874
1409,-3.4307094,-2.8977082,-8.724232
1410,-3.4259238,-2.955435,-8.668898
1411,-3.5147574,-2.9120653,-8.582756
1412,-3.5913277,-2.8833513,-8.422137
1413,-3.5913277,-2.8833513,-8.422137
1414,-3.7854455,-2.751746,-8.326425
1415,-3.8356948,-2.5959134,-8.172985
1416,-3.8165522,-2.5408785,-8.115557
1417,-3.8141594,-2.5695925,-8.1012
1418,-3.6583266,-2.6126633,-7.9337025
1419,-3.5004005,-2.725425,-7.8257265
1420,-3.3876386,-2.8139594,-7.7036924
1421,-3.1866415,-3.0080771,-7.449754
1422,-3.179164,-3.1013973,-7.4234333
1423,-3.1193435,-3.1516466,-7.3322067
1424,-3.0284162,-3.1253254,-7.248458
1425,-3.054737,-3.077469,-7.1623163
1426,-3.1097722,-3.0559337,-7.1192455
1427,-3.2201412,-3.0726833,-7.042376
1428,-3.315854,-3.051148,-6.917949
1429,-3.394817,-3.0272198,-6.9012
1430,-3.452544,-2.8977082,-6.882057
1431,-3.4549367,-2.6461627,-6.7262244
1432,-3.3684962,-2.4714868,-6.7669024
1433,-3.3278182,-2.3084757,-6.6185474
1434,-3.2775688,-2.1744776,-6.6041903
1435,-3.2009985,-2.0688944,-6.539285
1436,-3.1719856,-2.1119652,-6.4387865
1437,-3.1890345,-2.2558336,-6.3981085
1438,-3.1890345,-2.2558336,-6.3981085
1439,-3.3182468,-2.6461627,-6.48425
1440,-3.3876386,-2.8091738,-6.539285
1441,-3.4860435,-3.075076,-6.4459653
1442,-3.4426737,-3.269194,-6.419644
1443,-3.4764721,-3.3457642,-6.381359
1444,-3.4474592,-3.4896326,-6.3287168
1445,-3.3469608,-3.4944184,-6.539285
1446,-3.2440693,-3.417549,-6.7645097
1447,-3.1552358,-3.391228,-6.9538417
1448,-3.0906296,-3.309872,-7.016055
1449,-2.8845477,-3.1253254,-7.279565
1450,-2.7290142,-3.0176485,-7.3226357
1451,-2.6691937,-3.024827,-7.3827553
1452,-2.6620152,-3.0296125,-7.5717883
1453,-2.611467,-3.0678978,-7.6941214
1454,-2.650051,-3.1229327,-7.8257265
1455,-2.7601209,-3.1540394,-7.9169526
1456,-2.678765,-3.10379,-8.027022
1457,-2.6596224,-3.075076,-8.098807
1458,-2.6018956,-2.9889345,-8.091629
1459,-2.6979074,-3.0056844,-8.122736
1460,-2.7361927,-3.0870404,-8.1012
1461,-2.9949167,-3.1516466,-8.1586275
1462,-3.1624143,-3.0702906,-8.194819
1463,-3.1624143,-3.0702906,-8.194819
1464,-3.399603,-2.725425,-8.204391
1465,-3.545864,-2.4068804,-8.25464
1466,-3.696612,-2.2223341,-8.292925
1467,-3.845266,-2.1242282,-8.324032
1468,-3.9481573,-2.0904298,-8.266604
1469,-4.032205,-2.114358,-8.278568
1470,-4.065705,-2.236691,-8.172985
1471,-4.046562,-2.4619155,-8.261818
1472,-3.9987056,-2.5313072,-8.295318
1473,-3.8811584,-2.6054847,-8.5779705
1474,-3.802195,-2.548057,-8.729017
1475,-3.682255,-2.44038,-8.970692
1476,-3.7208393,-2.3228326,-9.121739
1477,-3.6367912,-2.184049,-9.2437725
1478,-3.5793636,-1.9540387,-9.34457
1479,-3.600899,-1.9444675,-9.301499
1480,-3.629613,-1.9755741,-9.294321
1481,-3.5913277,-2.0210378,-9.418748
1482,-3.5386856,-1.9731814,-9.4737835
1483,-3.4836507,-1.841277,-9.598509
1484,-3.3684962,-1.6570296,-9.696614
1485,-3.2321053,-1.4006985,-9.818948
1486,-3.164807,-1.0411769,-10.005588
1487,-3.1145577,-0.96460664,-10.111171
1488,-3.1289146,-0.94785684,-10.1446705
1489,-3.0523443,-0.89042914,-10.657333
1490,-2.9973094,-1.0582259,-10.987842
1491,-3.1025937,-1.2616158,-11.009377
1492,-3.5841491,-1.7144574,-10.729117
1493,-3.7758741,-1.8918254,-10.556536
1494,-4.2909293,-2.1625135,-10.360324
1495,-4.532903,-2.2295125,-10.353146
1496,-4.796413,-2.07368,-10.341181
1497,-4.92084,-1.7766708,-10.396216
1498,-5.0333023,-1.4844474,-10.420144
1499,-5.131707,-1.1922239,-10.575678
1500,-5.2896338,-0.8042875,-10.67169
1501,-5.4239306,-0.7752745,-10.733903
1502,-5.4933224,-0.84735835,-10.829617
1503,-5.47418,-0.9526425,-11.033305
1504,-5.2441697,-1.0773684,-11.220244
1505,-5.0189457,-1.1874382,-11.292029
1506,-4.566403,-1.4461622,-11.47179
1507,-4.286144,-1.5924234,-11.591431
1508,-3.9649072,-1.7096717,-11.65873
1509,-3.708576,-1.7216359,-11.752049
1510,-3.5985062,-1.5948163,-11.840584
1511,-3.5865421,-1.4126626,-11.907583
1512,-3.7256248,-1.244866,-11.893226
1513,-3.938586,-0.8210373,-11.814262
1514,-4.0609193,-0.61016977,-11.687443
1515,-4.254738,-0.37776688,-11.452647
1516,-4.319643,-0.2219343,-11.16521
1517,-4.377071,-0.10229317,-10.9375925
1518,-4.252345,-0.023330022,-10.530214
1519,-3.9744785,-0.23629123,-10.285848
1520,-3.6463625,-0.44955155,-10.218848
1521,-3.4283166,-0.67477596,-10.135099
1522,-3.2584262,-1.096511,-9.998409
1523,-3.2297122,-1.2999009,-9.974482
1524,-3.2679975,-1.7168503,-9.943375
1525,-3.4402807,-2.140978,-9.85484
1526,-3.5099716,-2.356332,-9.804591
1527,-3.7157545,-2.3084757,-9.586545
1528,-3.8931224,-1.9588244,-9.447462
1529,-4.072883,-1.7048861,-9.387642
1530,-4.384249,-1.2783655,-9.327821
1531,-4.721936,-1.0893325,-9.126525
1532,-4.935197,-0.89042914,-9.081061
1533,-4.9782677,-0.811466,-8.992527
1534,-5.1604214,-0.6771688,-8.843872
1535,-5.282455,-0.79710907,-8.70479
1536,-5.388038,-0.97178507,-8.6090765
1537,-5.3183475,-1.1659029,-8.453544
1538,-4.9519463,-1.462912,-8.525328
1539,-4.5305104,-1.6689938,-8.738588
1540,-4.3124647,-1.7694924,-8.760123
1541,-3.6439698,-1.9444675,-9.033205
1542,-3.3254254,-2.0138593,-9.138489
1543,-2.8319056,-2.0401804,-9.39482
1544,-2.3407788,-1.9277177,-9.722936
1545,-2.1565313,-1.8460627,-9.91466
1546,-2.175674,-1.8388842,-10.324431
1547,-2.4128625,-1.937289,-10.365109
1548,-2.664408,-2.0258234,-10.214063
1549,-3.1193435,-2.1119652,-9.986445
1550,-3.5745778,-2.1337996,-9.730114
1551,-4.0130625,-2.140978,-9.2895355
1552,-4.343571,-2.1936202,-8.788837
1553,-4.417749,-2.1433709,-8.635398
1554,-4.5544386,-2.0353947,-8.410173
1555,-4.5687957,-1.8535402,-8.4679
1556,-4.4775696,-1.7144574,-8.599505
1557,-4.3172503,-1.8750757,-8.805588
1558,-4.1590247,-1.9612173,-9.05474
1559,-3.979264,-2.0545373,-9.126525
1560,-3.6367912,-2.3515465,-9.073882
1561,-3.4331024,-2.6608188,-9.090632
1562,-3.2799616,-2.9120653,-9.026026
1563,-3.205784,-3.0032916,-8.95155
1564,-3.030809,-3.44387,-9.150453
1565,-3.0260234,-3.554239,-9.093025
1566,-2.9685955,-3.6260235,-8.841479
1567,-2.9422746,-3.5159538,-8.73141
1568,-2.94706,-3.3840494,-8.563613
1569,-3.030809,-3.2117662,-8.350353
1570,-3.100201,-2.9410782,-8.194819
1571,-3.19382,-2.8091738,-8.1586275
1572,-3.179164,-2.8139594,-8.163414
1573,-3.2392836,-2.7996025,-8.146664
1574,-3.342175,-2.7732813,-8.010273
1575,-3.464508,-2.7445676,-7.7611203
1576,-3.4764721,-2.751746,-7.5119677
1577,-3.4884362,-2.7302105,-7.315457
1578,-3.437888,-2.615056,-7.2532434
1579,-3.3230324,-2.4930222,-7.1838517
1580,-3.2368908,-2.3949163,-7.0782685
1581,-3.1193435,-2.3515465,-7.0208406
1582,-3.045166,-2.3635106,-6.9275208
1583,-3.124129,-2.426023,-6.894021
1584,-3.1624143,-2.4499512,-6.8389864
1585,-3.1576285,-2.4427729,-6.8195443
1586,-3.2321053,-2.4332016,-6.666404
1587,-3.2297122,-2.3901308,-6.6257257
1588,-3.2297122,-2.3901308,-6.6257257
1589,-3.3110683,-2.5719852,-6.367002
1590,-3.3206396,-2.7493532,-6.4028945
1591,-3.2943187,-3.0439694,-6.5105715
1592,-3.2560334,-3.1372895,-6.515357
1593,-3.1360931,-3.3026934,-6.6735826
1594,-3.0116663,-3.3792639,-6.7238317
1595,-2.7529426,-3.417549,-6.8339014
1596,-2.623431,-3.3792639,-6.8916283
1597,-2.566003,-3.3338,-7.018448
1598,-2.3336003,-3.10379,-7.0926256
1599,-2.1948166,-2.969792,-7.2101727
1600,-2.0485554,-2.943471,-7.399505
1601,-2.0198414,-2.9362924,-7.6363945
1602,-1.9743778,-3.036791,-7.8424764
1603,-2.02702,-3.1902308,-7.993523
1604,-2.1445673,-3.2883365,-8.27139
1605,-2.2881367,-3.3194432,-8.216354
1606,-2.5468607,-3.0607193,-8.070093
1607,-2.6668007,-2.900101,-7.993523
1608,-2.9303105,-2.7038896,-7.945667
1609,-3.1337004,-2.6078775,-7.91456
1610,-3.588935,-2.5384858,-7.6220374
1611,-3.778267,-2.6126633,-7.428219
1612,-4.005884,-2.7589245,-7.272386
1613,-4.005884,-2.7589245,-7.272386
1614,-4.0704904,-3.161218,-7.277172
1615,-3.9457645,-3.1348968,-7.442576
1616,-3.694219,-3.185445,-7.7156568
1617,-3.5626137,-3.158825,-7.864012
1618,-3.354139,-2.9865417,-8.108378
1619,-3.19382,-2.9530423,-8.278568
1620,-2.9156544,-2.9195428,-8.56122
1621,-2.841477,-2.9410782,-8.580363
1622,-2.786442,-2.9769704,-8.616255
1623,-2.7553353,-2.9817562,-8.623434
1624,-2.992524,-2.78046,-8.530113
1625,-3.138486,-2.6775684,-8.460722
1626,-3.5339,-2.4930222,-8.388638
1627,-3.912265,-2.4188447,-8.431708
1628,-4.1350965,-2.3973093,-8.417352
1629,-4.4895334,-2.4451656,-8.400602
1630,-4.779364,-2.399702,-8.402995
1631,-4.9782677,-2.399702,-8.426923
1632,-5.0452666,-2.3395824,-8.326425
1633,-5.1029935,-2.2941186,-8.417352
1634,-4.892126,-2.0617158,-8.680861
1635,-4.441677,-1.7240287,-9.116954
1636,-4.0010986,-1.599602,-9.461819
1637,-3.7256248,-1.5107684,-9.643972
1638,-3.4740794,-1.4940187,-9.814162
1639,-3.3780673,-1.6043876,-9.979267
1640,-3.1767712,-1.6761723,-10.235598
1641,-3.1504502,-1.6713866,-10.381859
1642,-3.100201,-1.5490535,-10.456037
1643,-3.2009985,-1.340878,-10.434502
1644,-3.3637104,-1.2161521,-10.295419
1645,-3.5841491,-1.1108679,-10.092029
1646,-3.9218364,-1.1491531,-9.818948
1647,-4.1183467,-1.2257234,-9.629616
1648,-4.41057,-1.4006985,-9.478569
1649,-4.5038905,-1.4916258,-9.363713
1650,-4.6142592,-1.6283158,-9.4737835
1651,-4.5038905,-1.6235301,-9.60808
1652,-4.429713,-1.5275182,-9.754043
1653,-4.1925244,-1.5275182,-10.19492
1654,-3.9816568,-1.4581263,-10.444073
1655,-3.8548372,-1.244866,-10.616655
1656,-3.6080775,-0.89042914,-10.942378
1657,-3.5817564,-0.74416786,-10.916057
1658,-3.6511483,-0.6197411,-11.0811615
1659,-3.7878382,-0.72263247,-11.102697
1660,-3.8380876,-0.9071789,-11.07159
1661,-3.9864426,-1.0917253,-11.136496
1662,-3.979264,-1.3528421,-11.248959
1663,-3.979264,-1.3528421,-11.248959
1664,-4.0561333,-1.4820545,-11.181959
1665,-4.132704,-1.434198,-11.177174
1666,-4.2837505,-1.2903296,-11.141281
1667,-4.391428,-1.2257234,-11.097912
1668,-4.604688,-1.0677971,-11.416755
1669,-4.7745786,-0.91196454,-11.675479
1670,-4.8299127,-0.7369894,-11.77837
1671,-4.834698,-0.45194438,-11.816655
1672,-4.8394837,-0.111864455,-11.771192
1673,-4.8035913,0.21625134,-11.668301
1674,-4.7434716,0.4869394,-11.48854
1675,-4.67408,0.5925227,-11.213066
1676,-4.67408,0.5300102,-10.932807
1677,-4.583153,0.17796618,-10.678868
1678,-4.44407,-0.3275176,-10.484751
1679,-4.369892,-0.94785684,-10.180563
1680,-4.262215,-1.2257234,-10.031909
1681,-4.185346,-1.4844474,-9.85484
1682,-4.156632,-1.666601,-9.643972
1683,-4.1350965,-1.7814565,-9.5048895
1684,-4.113561,-1.8655044,-9.442677
1685,-4.302893,-1.8197416,-9.385248
1686,-4.4321055,-1.5658033,-9.303893
1687,-4.5305104,-1.3456637,-9.169596
1688,-4.7099724,-1.2735798,-8.9348
1689,-4.8586264,-1.2472588,-8.496614
1690,-4.8825545,-1.3241283,-8.268997
1691,-4.7362933,-1.5227325,-7.995916
1692,-4.441677,-1.678565,-7.9887376
1693,-3.9963129,-1.7694924,-8.1682
1694,-3.7447674,-1.8221345,-8.34796
1695,-3.0403802,-1.6857436,-9.133703
1696,-2.6859434,-1.50359,-9.593723
1697,-2.352743,-1.2831511,-9.931411
1698,-1.9480567,-0.88325065,-10.377073
1699,-1.7778672,-0.67477596,-10.719546
1700,-1.7180467,-0.526421,-11.01177
1701,-1.9671993,-0.8042875,-11.009377
1702,-2.554039,-1.189831,-10.642976
1703,-3.3182468,-1.7934206,-10.154242
1704,-3.9673,-2.1505494,-9.569795
1705,-4.3411784,-2.274976,-9.143274
1706,-4.6118665,-2.370689,-8.717052
1707,-4.901697,-2.3925235,-8.335996
1708,-5.093422,-2.3300111,-8.00788
1709,-5.124529,-2.167299,-8.0677
1710,-4.9375896,-1.910968,-8.307282
1711,-4.8323054,-1.8559331,-8.448758
1712,-4.705187,-1.7910278,-8.6090765
1713,-4.659723,-1.7551354,-8.690433
1714,-4.369892,-1.7838492,-9.186345
1715,-4.2260237,-1.9061823,-9.301499
1716,-4.0298123,-2.0377877,-9.387642
1717,-3.7974095,-2.2342982,-9.478569
1718,-3.5841491,-2.3778675,-9.437891
1719,-3.3876386,-2.713461,-9.169596
1720,-3.3565319,-2.8378878,-9.093025
1721,-3.2799616,-3.0702906,-8.894122
1722,-3.2033913,-3.1779675,-8.8701935
1723,-3.2129626,-3.1157541,-8.843872
1724,-3.3086755,-2.996113,-8.860622
1725,-3.382853,-2.9219356,-8.750552
1726,-3.5865421,-2.7302105,-8.601898
1727,-3.749553,-2.6413772,-8.475079
1728,-3.7998023,-2.656033,-8.304889
1729,-3.8141594,-2.754139,-8.316854
1730,-3.7013974,-2.8689942,-8.324032
1731,-3.6607196,-3.0008986,-8.285747
1732,-3.5745778,-3.1974092,-8.2761755
1733,-3.4740794,-3.3409786,-8.230712
1734,-3.2584262,-3.4872398,-8.316854
1735,-3.1767712,-3.4633117,-8.357532
1736,-3.0403802,-3.3649068,-8.352746
1737,-2.9709885,-3.2189445,-8.247461
1738,-2.9709885,-3.2189445,-8.247461
1739,-3.1624143,-3.1157541,-7.9241314
1740,-3.3326037,-3.132504,-7.641479
1741,-3.5506496,-3.1301112,-7.339385
1742,-3.6894333,-3.2356944,-7.1192455
1743,-3.8380876,-3.226123,-6.8461647
1744,-3.99392,-3.1516466,-6.6185474
1745,-3.8476589,-2.6775684,-6.6257257
1746,-3.778267,-2.3467607,-6.649654
1747,-3.6559339,-2.0090737,-6.6017976
1748,-3.6248271,-1.8726828,-6.6089764
1749,-3.521936,-1.6977077,-6.4387865
1750,-3.4450665,-1.719243,-6.3861446
1751,-3.354139,-1.9325033,-6.3957157
1752,-3.2560334,-2.1720848,-6.39093
1753,-3.124129,-2.5504498,-6.40768
1754,-3.0403802,-2.8929226,-6.4387865
1755,-2.8677979,-3.2859437,-6.4292154
1756,-2.7290142,-3.688237,-6.51775
1757,-2.5061827,-3.9373896,-6.582655
1758,-2.2809582,-4.0214376,-6.8629146
1759,-2.0820549,-4.004688,-7.0519476
1760,-1.9025931,-3.9421754,-7.2293153
1761,-1.7491534,-3.7507496,-7.401898
1762,-1.7228323,-3.6954155,-7.5670023
1763,-1.8448663,-3.5183465,-7.7156568
1764,-2.1421745,-3.3003006,-7.7204423
1765,-2.405684,-3.1468608,-7.725228
1766,-2.6979074,-3.1348968,-7.8113694
1767,-2.9156544,-3.0870404,-7.7347994
1768,-3.0858438,-3.024827,-7.7850485
1769,-3.19382,-2.9410782,-7.928917
1770,-3.2321053,-2.8522446,-7.9743805
1771,-3.342175,-2.725425,-8.034201
1772,-3.4549367,-2.6703901,-7.967202
1773,-3.4402807,-2.6823542,-7.9624166
1774,-3.5027933,-2.7014968,-7.967202
1775,-3.5482569,-2.8235307,-8.082058
1776,-3.5697923,-2.9745777,-8.137093
1777,-3.5530424,-3.1420753,-8.170592
1778,-3.5004005,-3.1998022,-8.228319
1779,-3.4474592,-3.2356944,-8.050951
1780,-3.464508,-3.2309089,-7.969595
1781,-3.5410783,-3.2524443,-7.8089767
1782,-3.5578282,-3.2500513,-7.708478
1783,-3.5673995,-3.3170505,-7.7108707
1784,-3.5745778,-3.2644083,-7.737192
1785,-3.4836507,-3.2356944,-7.818548
1786,-3.3852458,-3.0559337,-7.9576306
1787,-3.3804603,-2.8402805,-7.9504523
1788,-3.289533,-2.6461627,-8.000702
1789,-3.2153554,-2.4092734,-8.053344
1790,-3.1866415,-2.3012972,-8.201998
1791,-3.19382,-2.3228326,-8.304889
1792,-3.2919257,-2.4044876,-8.4679
1793,-3.313461,-2.4523442,-8.666505
1794,-3.3038898,-2.5384858,-8.755338
1795,-3.234498,-2.5552354,-8.894122
1796,-3.1217363,-2.4284158,-8.953942
1797,-2.9805596,-2.044966,-9.119347
1798,-2.9662027,-1.9229321,-9.179167
1799,-3.0379875,-1.5514464,-9.34457
1800,-3.1815567,-1.570589,-9.478569
