,ax,ay,az
501,-4.2020955,-2.5839493,-9.303893
502,-4.154239,-2.6341987,-9.2488575
503,-4.1757746,-2.5600212,-9.315857
504,-4.1494536,-2.3829522,-9.404391
505,-4.113561,-2.126621,-9.524331
506,-4.1374893,-1.8583258,-9.68465
507,-4.1757746,-1.6474584,-9.773185
508,-4.3579283,-1.625923,-9.722936
509,-4.5206404,-1.6331015,-9.634401
510,-4.65733,-1.7048861,-9.421141
511,-4.820341,-1.9133608,-9.330214
512,-4.892126,-1.992324,-9.4019985
513,-4.9256253,-1.9612173,-9.373284
514,-4.9471607,-1.9229321,-9.39482
515,-4.8155556,-1.9205393,-9.4019985
516,-4.813163,-1.9444675,-9.478569
517,-4.659723,-1.9492532,-9.603294
518,-4.491926,-2.0377877,-9.708579
519,-4.3794637,-2.1457636,-9.845269
520,-4.2837505,-2.169692,-9.8524475
521,-4.2837505,-2.1481566,-10.056136
522,-4.267001,-2.1242282,-10.142278
523,-4.269394,-2.0401804,-10.338788
524,-4.307679,-1.8173488,-10.432109
525,-4.523332,-1.6905292,-10.460822
526,-4.686044,-1.5804594,-10.506286
527,-4.9256253,-1.4988043,-10.463215
528,-5.122136,-1.448555,-10.484751
529,-5.1843495,-1.4294125,-10.427323
530,-5.354539,-1.4365909,-10.44168
531,-5.3976097,-1.4389837,-10.573285
532,-5.323133,-1.3743775,-10.757832
533,-5.2369914,-1.3241283,-10.815259
534,-5.1460643,-1.2807583,-10.856236
535,-5.124529,-1.2113664,-10.856236
536,-5.1795635,-1.1802598,-10.709975
537,-5.1867423,-1.2807583,-10.681261
538,-5.1699924,-1.1587243,-10.824831
539,-5.1939206,-1.082154,-10.733903
540,-5.201099,-1.1108679,-10.590334
541,-5.0599227,-1.2711871,-10.204492
542,-5.0189457,-1.2975081,-10.089636
543,-4.918447,-1.4772689,-9.758828
544,-4.788935,-1.6307086,-9.529117
545,-4.741079,-1.7312071,-9.315857
546,-4.58076,-1.8487546,-9.25125
547,-4.384249,-1.8942182,-9.18156
548,-4.130311,-1.9253249,-9.128918
549,-3.9026937,-1.951646,-9.112167
550,-3.7181473,-1.9492532,-9.119347
551,-3.5482569,-1.9444675,-9.2437725
552,-3.4956148,-2.004288,-9.500104
553,-3.4307094,-1.9277177,-9.828519
554,-3.4860435,-1.8655044,-10.099207
555,-3.5937204,-1.8364913,-10.159028
556,-4.025027,-1.7503498,-9.885947
557,-4.1757746,-1.7383857,-9.799805
558,-4.575974,-1.7766708,-9.581759
559,-4.942375,-1.8173488,-9.291928
560,-5.098208,-1.8364913,-8.891729
561,-5.258527,-1.8173488,-8.642576
562,-5.3330035,-1.9157536,-8.475079
563,-5.5965133,-2.0306091,-8.283354
564,-5.651548,-2.1984057,-8.019844
565,-5.5316076,-2.3419752,-7.9217386
566,-5.2513485,-2.4762723,-7.9480596
567,-4.853841,-2.684747,-8.206783
568,-4.5206404,-2.6919255,-8.393424
569,-4.1087756,-2.6413772,-8.549256
570,-3.6367912,-2.548057,-8.709874
571,-3.330211,-2.437987,-8.956335
572,-3.05713,-2.4092734,-9.121739
573,-2.853441,-2.3491535,-9.229416
574,-2.542075,-2.3949163,-9.191131
575,-2.4846473,-2.4619155,-9.4019985
576,-2.3455644,-2.6512475,-9.500104
577,-2.434398,-2.8139594,-9.605687
578,-2.7003005,-2.9626136,-9.689436
579,-3.1552358,-2.8163524,-9.256036
580,-3.275176,-2.8019953,-9.076276
581,-3.600899,-2.6632116,-8.788837
582,-3.897908,-2.5289145,-8.570791
583,-4.0704904,-2.5002005,-8.518149
584,-4.262215,-2.4978077,-8.472686
585,-4.400999,-2.483451,-8.367103
586,-4.441677,-2.4427729,-8.165807
587,-4.415356,-2.5289145,-8.046165
588,-4.115954,-2.6078775,-7.952845
589,-3.7950168,-2.7038896,-8.084451
590,-3.481258,-2.902494,-8.335996
591,-3.1432717,-3.0056844,-8.616255
592,-2.8869405,-3.1109686,-8.841479
593,-2.6306095,-3.226123,-8.965906
594,-2.4678974,-3.2979078,-9.073882
595,-2.335993,-3.4103706,-9.023633
596,-2.4678974,-3.5303106,-8.822337
597,-2.6715865,-3.5997026,-8.558827
598,-2.9183464,-3.5829527,-8.295318
599,-3.2488549,-3.5709887,-8.005487
600,-3.4426737,-3.5853457,-7.670193
601,-3.6583266,-3.649952,-7.303493
602,-3.871587,-3.7459638,-7.124031
603,-3.938586,-3.798606,-6.9275208
604,-4.0130625,-3.8344984,-6.7645097
605,-3.8380876,-3.716951,-6.704689
606,-3.6439698,-3.5781672,-6.771688
607,-3.3684962,-3.4199417,-6.858129
608,-3.054737,-3.309872,-7.008877
609,-2.7888348,-3.1564322,-7.171888
610,-2.5492535,-3.0990045,-7.272386
611,-2.4559333,-3.0870404,-7.3322067
612,-2.2713869,-3.118147,-7.4808607
613,-2.2666013,-3.2189445,-7.5311103
614,-2.2259233,-3.3433714,-7.5406814
615,-2.2115662,-3.4223347,-7.5287175
616,-2.283351,-3.4968112,-7.2149587
617,-2.3742783,-3.4920256,-7.0208406
618,-2.4487548,-3.4944184,-6.877271
619,-2.5396821,-3.513561,-6.771688
620,-2.5851457,-3.5470605,-6.7740808
621,-2.566003,-3.592524,-6.795616
622,-2.5061827,-3.6523447,-6.8868427
623,-2.5181468,-3.5446677,-7.0375905
624,-2.4726832,-3.4103706,-7.2149587
625,-2.3889344,-3.2715867,-7.4066834
626,-2.2857437,-3.1779675,-7.5263247
627,-2.228316,-3.0798619,-7.708478
628,-2.228316,-3.0583265,-7.7850485
629,-2.204388,-3.0846474,-7.861619
630,-2.1780667,-3.1277182,-7.830512
631,-2.1708884,-3.2524443,-7.7706914
632,-2.268994,-3.3385859,-7.696514
633,-2.434398,-3.441477,-7.746763
634,-2.6186452,-3.4271202,-7.739585
635,-2.7553353,-3.3840494,-7.6749787
636,-2.9036903,-3.2213376,-7.696514
637,-3.1217363,-3.075076,-7.756335
638,-3.2368908,-2.8402805,-7.7850485
639,-3.411567,-2.7589245,-7.7754774
640,-3.629613,-2.7852457,-7.7300134
641,-3.7710886,-2.8354948,-7.6316085
642,-4.0034914,-2.9096723,-7.4832535
643,-4.1422753,-2.9769704,-7.3322067
644,-4.276572,-3.0391839,-7.1336026
645,-4.1757746,-3.022434,-7.066304
646,-4.0202413,-3.0942187,-7.085447
647,-3.818945,-3.185445,-7.13121
648,-3.6463625,-3.3409786,-7.2508507
649,-3.5482569,-3.3696926,-7.5215387
650,-3.2009985,-3.429513,-7.773084
651,-3.0236306,-3.4800615,-8.113164
652,-2.7672994,-3.4680972,-8.479864
653,-2.4942186,-3.3936207,-8.745767
654,-2.3599212,-3.3529427,-8.908479
655,-2.0581267,-3.254837,-9.045169
656,-1.9480567,-3.1564322,-9.069097
657,-1.9504496,-3.1301112,-9.14806
658,-1.998306,-2.914458,-9.28475
659,-2.1421745,-2.7014968,-9.492926
660,-2.2881367,-2.3829522,-9.65833
661,-2.542075,-2.1649063,-9.701401
662,-2.7385855,-2.059323,-9.770792
663,-3.1890345,-2.0401804,-9.737292
664,-3.4716866,-2.004288,-9.758828
665,-3.641577,-1.8918254,-9.85484
666,-3.6367912,-1.8005991,-9.902697
667,-3.6439698,-1.7934206,-9.850055
668,-3.7181473,-1.7168503,-9.821341
669,-3.7256248,-1.585245,-9.766006
670,-3.7998023,-1.5011971,-9.780663
671,-3.952943,-1.5681962,-9.8428755
672,-4.0968113,-1.625923,-9.9553385
673,-4.2427735,-1.7407784,-9.976874
674,-4.384249,-1.9348962,-9.945767
675,-4.5158544,-2.0904298,-9.859626
676,-4.5975094,-2.277369,-9.761221
677,-4.731508,-2.3611178,-9.526724
678,-4.851448,-2.3132613,-9.483355
679,-4.999803,-2.1984057,-9.51476
680,-5.028517,-1.9827527,-9.428319
681,-5.083851,-1.7694924,-9.452248
682,-4.9663033,-1.5059828,-9.4737835
683,-4.9256253,-1.4557334,-9.517153
684,-4.7362933,-1.3480564,-9.54826
685,-4.7362933,-1.3480564,-9.54826
686,-4.35075,-1.3719847,-9.739685
687,-4.2164526,-1.4605191,-9.806984
688,-4.0106697,-1.448555,-9.979267
689,-3.859623,-1.3719847,-10.113564
690,-3.7423747,-1.314557,-10.182956
691,-3.641577,-1.244866,-10.190134
692,-3.5482569,-1.2568301,-10.060922
693,-3.629613,-1.2687942,-10.024731
694,-3.670291,-1.2687942,-10.027123
695,-3.6870406,-1.2687942,-10.113564
696,-3.76391,-1.2999009,-10.159028
697,-3.9098723,-1.3313067,-10.266705
698,-4.0513477,-1.3046865,-10.276276
699,-4.2020955,-1.2209377,-10.314561
700,-4.3124647,-1.1778669,-10.264312
701,-4.3722854,-1.1706885,-10.317253
702,-4.424927,-1.1826526,-10.566107
703,-4.3722854,-1.1371889,-10.690832
704,-4.3651066,-1.1419746,-10.887343
705,-4.374678,-1.2209377,-10.985449
706,-4.5687957,-1.2209377,-11.119746
707,-4.6022954,-1.2616158,-11.181959
708,-4.765007,-1.326521,-11.134103
709,-4.8849473,-1.355235,-11.119746
710,-4.8993044,-1.2616158,-11.045269
711,-4.932804,-1.0534402,-10.939985
712,-4.88734,-0.95742816,-10.73151
713,-4.8442693,-0.8712866,-10.456037
714,-4.81077,-0.9287143,-10.077672
715,-4.7362933,-0.9622138,-9.806984
716,-4.645366,-0.9837492,-9.706186
717,-4.470391,-0.9837492,-9.689436
718,-4.2499523,-1.1108679,-9.732507
719,-4.048955,-1.2783655,-9.833304
720,-3.7734814,-1.3887345,-10.043873
721,-3.5697923,-1.5777674,-10.056136
722,-3.4067812,-1.7120646,-10.123136
723,-3.382853,-1.8029919,-10.113564
724,-3.4139597,-1.9037895,-10.163814
725,-3.6320057,-1.9444675,-9.991231
726,-3.8117664,-1.8245273,-9.969695
727,-4.1374893,-1.7647067,-9.643972
728,-4.4871407,-1.6450655,-9.37807
729,-4.7027936,-1.5418751,-9.107382
730,-4.8681974,-1.5059828,-8.867801
731,-4.79402,-1.4174483,-8.71466
732,-4.731508,-1.3289139,-8.685647
733,-4.5472603,-1.230509,-8.664112
734,-4.254738,-1.340878,-8.664112
735,-3.6439698,-1.6187445,-8.851051
736,-3.3278182,-1.7359928,-8.965906
737,-3.0858438,-1.8559331,-8.985348
738,-2.594717,-1.9540387,-9.061918
739,-2.3336003,-2.059323,-9.124132
740,-2.1421745,-2.1337996,-9.186345
741,-2.0365913,-2.2534406,-9.183952
742,-2.0868404,-2.3371894,-9.253643
743,-2.2618155,-2.3252254,-9.152845
744,-2.5109682,-2.2917259,-9.028419
745,-2.8773692,-2.184049,-8.889337
746,-3.2823544,-2.126621,-8.7673025
747,-3.6200416,-2.1194427,-8.659326
748,-4.039384,-2.0665014,-8.520542
749,-4.048955,-2.0018952,-8.491829
750,-4.1279182,-1.8293129,-8.470293
751,-4.10399,-1.7814565,-8.434102
752,-3.9098723,-1.814956,-8.4655075
753,-3.5817564,-2.0234306,-8.752945
754,-3.301497,-2.2390838,-9.057133
755,-3.0355947,-2.4236302,-9.195916
756,-2.8031917,-2.615056,-9.375677
757,-2.8079774,-2.6656044,-9.351749
758,-2.705086,-2.7732813,-9.294321
759,-2.650051,-2.9243283,-9.260822
760,-2.6979074,-3.01047,-9.268001
761,-2.7409782,-2.996113,-9.277572
762,-2.7649066,-2.9769704,-9.18156
763,-2.8749764,-2.9195428,-9.112167
764,-3.0260234,-2.8307092,-8.997313
765,-3.1552358,-2.8187451,-8.970692
766,-3.3206396,-2.792424,-9.004491
767,-3.4283166,-2.78046,-9.009276
768,-3.545864,-2.833102,-8.965906
769,-3.7256248,-3.077469,-8.855837
770,-3.7854455,-3.161218,-8.70479
771,-3.802195,-3.2787652,-8.542078
772,-3.8380876,-3.4510484,-8.314461
773,-3.790231,-3.5279179,-8.245069
774,-3.478865,-3.5063825,-8.0677
775,-3.2392836,-3.4944184,-8.053344
776,-2.9614172,-3.4342988,-8.328817
777,-2.7361927,-3.2620156,-8.633005
778,-2.582753,-3.0702906,-8.891729
779,-2.4320052,-2.833102,-9.042776
780,-2.204388,-2.6102705,-9.097811
781,-2.14696,-2.5528426,-9.183952
782,-2.0318055,-2.5576284,-9.277572
783,-1.9959131,-2.7421749,-9.351749
784,-2.094019,-3.022434,-9.337392
785,-2.175674,-3.3816566,-9.337392
786,-2.242673,-3.5901313,-9.205488
787,-2.4918256,-3.7268212,-9.128918
788,-2.784049,-3.6547375,-8.863015
789,-3.1480572,-3.44387,-8.65454
790,-3.411567,-3.0894332,-8.381459
791,-3.6152558,-2.7684958,-7.995916
792,-3.6870406,-2.426023,-7.543074
793,-3.8261235,-2.1744776,-7.1742806
794,-3.9026937,-2.0665014,-6.7573314
795,-3.9290147,-2.114358,-6.3287168
796,-3.8691943,-2.370689,-6.031409
797,-3.5793636,-2.7445676,-6.172884
798,-3.1962128,-3.0990045,-6.582655
799,-2.7672994,-3.254837,-6.9873414
800,-2.3865414,-3.3768709,-7.2915287
801,-1.9480567,-3.5207393,-7.7300134
802,-1.5215361,-3.5446677,-8.074879
803,-1.0929217,-3.647559,-8.209176
804,-0.8030911,-3.760321,-8.295318
805,-0.6257231,-3.8297126,-8.36471
806,-0.6376872,-3.9110687,-8.326425
807,-0.84137625,-3.9517467,-8.300103
808,-1.1503495,-3.8727834,-8.153842
809,-1.6103697,-3.712165,-8.074879
810,-2.0006988,-3.621238,-8.084451
811,-2.3865414,-3.4800615,-8.264212
812,-2.6090739,-3.3553355,-8.434102
813,-2.7792635,-3.24048,-8.549256
814,-2.9853454,-3.144468,-8.539685
815,-3.0978081,-3.1950164,-8.496614
816,-3.260819,-3.2333016,-8.376674
817,-3.2775688,-3.3577285,-8.247461
818,-3.3086755,-3.3792639,-7.969595
819,-3.3206396,-3.4342988,-7.7419777
820,-3.2656047,-3.5494533,-7.387541
821,-3.2105699,-3.7097723,-7.2029943
822,-3.19382,-3.9230328,-7.1623163
823,-3.152843,-3.9951165,-7.2006016
824,-3.0882368,-3.9158542,-7.3779697
825,-2.9805596,-3.7145581,-7.519146
826,-2.8486555,-3.4007993,-7.502396
827,-2.676372,-3.0726833,-7.5382886
828,-2.5612175,-2.8761728,-7.5885377
829,-2.4367907,-2.8713872,-7.5693955
830,-2.3024936,-3.024827,-7.574181
831,-2.245066,-3.144468,-7.6893353
832,-2.2091734,-3.202195,-7.938488
833,-2.1780667,-3.0678978,-7.9767733
834,-2.228316,-2.8761728,-7.8759756
835,-2.2737796,-2.684747,-7.7754774
836,-2.309672,-2.588735,-7.737192
837,-2.3718855,-2.6054847,-7.610073
838,-2.4104698,-2.8163524,-7.6462646
839,-2.3718855,-2.9626136,-7.6606216
840,-2.2761726,-3.0678978,-7.804191
841,-2.1397817,-3.1301112,-7.9217386
842,-2.038984,-3.077469,-7.979166
843,-1.9145572,-3.012863,-8.027022
844,-1.8424734,-2.9362924,-8.103593
845,-1.8329022,-2.9793632,-8.278568
846,-1.9289142,-3.024827,-8.410173
847,-2.0988045,-3.1109686,-8.611469
848,-2.3961127,-3.1779675,-8.786445
849,-2.6548367,-3.0296125,-9.014062
850,-2.990131,-2.7900312,-9.186345
851,-3.4259238,-2.5408785,-9.308679
852,-3.588935,-2.5002005,-9.306286
853,-3.9098723,-2.3829522,-9.272786
854,-4.1901317,-2.289333,-9.265608
855,-4.467998,-2.265405,-9.028419
856,-4.7578287,-2.315654,-8.946764
857,-4.7745786,-2.3682961,-8.776874
858,-4.8394837,-2.4355943,-8.7577305
859,-4.731508,-2.5145576,-8.803194
860,-4.508676,-2.5097718,-8.95155
861,-4.0920258,-2.4499512,-9.145667
862,-3.7304106,-2.3778675,-9.430713
863,-3.354139,-2.2582264,-9.632009
864,-3.0906296,-2.1888344,-9.7348995
865,-2.841477,-2.1242282,-9.77797
866,-2.6548367,-1.9755741,-9.878768
867,-2.515754,-1.8774685,-9.924232
868,-2.4535406,-1.7216359,-10.08485
869,-2.4990041,-1.5658033,-10.027123
870,-2.6042883,-1.3624134,-10.003195
871,-2.8103702,-1.2400804,-9.893126
872,-3.124129,-1.2687942,-9.799805
873,-3.411567,-1.3432708,-9.862019
874,-3.629613,-1.4318053,-9.909875
875,-3.8955152,-1.570589,-9.96491
876,-4.113561,-1.6402799,-9.900304
877,-3.9816568,-1.5370895,-10.005588
878,-4.1255255,-1.5442679,-10.027123
879,-4.223631,-1.5394822,-9.87159
880,-4.0609193,-1.434198,-9.845269
881,-3.9768713,-1.3046865,-9.991231
882,-3.9891346,-1.2616158,-10.087243
883,-3.9218364,-1.1826526,-10.187741
884,-3.8476589,-1.204188,-10.369895
885,-3.679862,-1.3070793,-10.429716
886,-3.641577,-1.3648062,-10.463215
887,-3.5362928,-1.3671991,-10.556536
888,-3.4283166,-1.230509,-10.537393
889,-3.3326037,-1.1228321,-10.570892
890,-3.4573295,-0.98614204,-10.549356
891,-3.696612,-0.9622138,-10.458429
892,-3.9290147,-1.0292128,-10.30499
893,-4.1757746,-1.096511,-10.170992
894,-4.5424747,-1.2520444,-10.017552
895,-4.578367,-1.2687942,-9.873982
896,-4.769793,-1.3743775,-9.756435
897,-4.8705907,-1.3671991,-9.699007
898,-4.837091,-1.3528421,-9.6631155
899,-4.6836514,-1.1970096,-9.897911
900,-4.467998,-0.9550353,-10.204492
901,-4.247559,-0.79471624,-10.410573
902,-3.979264,-0.5982057,-10.647761
903,-3.7471602,-0.57906306,-10.877771
904,-3.5171502,-0.58624154,-11.047662
905,-3.437888,-0.70348984,-11.129317
906,-3.370889,-0.74895346,-11.260922
907,-3.464508,-0.92153585,-11.347064
908,-3.6343985,-1.1204392,-11.292029
909,-3.8620157,-1.3046865,-11.337493
910,-4.1374893,-1.4030914,-11.292029
911,-4.3794637,-1.3839488,-11.162817
912,-4.5711884,-1.2927225,-10.944771
913,-4.822734,-0.98853487,-10.477572
914,-4.959125,-0.8234301,-10.048958
915,-4.944768,-0.81864446,-9.8835535
916,-4.9495535,-0.88325065,-9.5506525
917,-4.7339005,-1.1252248,-9.466604
918,-4.458427,-1.3070793,-9.485747
919,-4.0537405,-1.462912,-9.567402
920,-3.6343985,-1.5729818,-9.655936
921,-3.3876386,-1.599602,-9.763614
922,-3.1073792,-1.6426728,-9.969695
923,-2.7481568,-1.6977077,-10.039087
924,-2.5731816,-1.7312071,-9.993624
925,-2.4391835,-1.8918254,-9.9960165
926,-2.50379,-2.006681,-10.1016
927,-2.8749764,-2.1505494,-10.345967
928,-3.1313076,-2.1218355,-10.360324
929,-3.4716866,-2.0425732,-10.30499
930,-3.8333018,-1.6809579,-10.051351
931,-4.099204,-1.5418751,-9.75165
932,-4.039384,-1.2927225,-9.478569
933,-4.034598,-1.1419746,-9.48814
934,-4.1925244,-1.1443675,-9.440284
935,-4.4129634,-1.1491531,-9.263215
936,-4.415356,-1.2424731,-9.2126665
937,-4.3531427,-1.2927225,-9.143274
938,-4.1781673,-1.5729818,-9.14806
939,-3.7328033,-1.9851454,-9.179167
940,-3.521936,-2.0282164,-9.210274
941,-3.2201412,-2.0784655,-9.152845
942,-2.94706,-2.1047866,-9.073882
943,-2.7026932,-2.07368,-8.908479
944,-2.3865414,-2.0641086,-8.7577305
945,-2.216352,-2.0545373,-8.71466
946,-2.012663,-2.0114665,-8.702396
947,-1.7826529,-1.9564316,-8.71466
948,-1.6295122,-1.9540387,-8.769695
949,-1.5335002,-2.0210378,-8.88455
950,-1.4497514,-2.0497518,-9.116954
951,-1.4042878,-2.1218355,-9.263215
952,-1.3181462,-2.2558336,-9.452248
953,-1.3683954,-2.3395824,-9.660723
954,-1.3995022,-2.4738796,-9.691829
955,-1.6965113,-2.574378,-9.806984
956,-2.0916262,-2.6943183,-9.785448
957,-2.6090739,-2.78046,-9.667901
958,-3.1456645,-2.7996025,-9.545867
959,-3.5865421,-2.8953154,-9.413962
960,-3.9026937,-2.9650064,-9.320642
961,-4.35075,-2.9913275,-9.093025
962,-4.5424747,-2.8713872,-8.8701935
963,-4.738686,-2.7182465,-8.455936
964,-4.837091,-2.6365914,-8.048558
965,-4.82752,-2.6174488,-7.8113694
966,-4.772186,-2.6632116,-7.602895
967,-4.400999,-2.8546374,-7.765906
968,-3.9744785,-3.0870404,-8.036594
969,-3.5410783,-3.0200412,-8.278568
970,-3.0092735,-2.9985058,-8.338388
971,-2.8103702,-2.969792,-8.39821
972,-2.4152553,-3.077469,-8.405388
973,-1.9887347,-3.1277182,-8.36471
974,-1.7467605,-3.3314073,-8.417352
975,-1.3947165,-3.403192,-8.599505
976,-1.2939188,-3.4103706,-8.644969
977,-1.2364911,-3.309872,-8.729017
978,-1.3516457,-3.158825,-8.592327
979,-1.753939,-2.9120653,-8.240283
980,-2.149353,-2.6679974,-7.936095
981,-2.515754,-2.4906292,-7.746763
982,-2.8103702,-2.2797618,-7.648658
983,-3.045166,-2.033002,-7.4976106
984,-3.1671999,-1.9683957,-7.2843504
985,-3.2273195,-2.0138593,-7.198209
986,-3.1767712,-2.2223341,-7.126424
987,-3.083451,-2.4523442,-7.181459
988,-2.8582265,-2.8977082,-7.265208
989,-2.5875385,-3.2763724,-7.260422
990,-2.446362,-3.554239,-7.3322067
991,-2.2259233,-3.9038901,-7.533503
992,-2.0844476,-4.200899,-7.6076803
993,-1.9743778,-4.36391,-7.6390862
994,-1.8667008,-4.430909,-7.713264
995,-1.8089739,-4.354339,-7.816155
996,-1.753939,-4.1482573,-7.9073815
997,-1.7970098,-3.8823547,-7.983952
998,-1.8547367,-3.5111682,-8.122736
999,-1.8714864,-3.3314073,-8.206783
1000,-1.9145572,-3.1683962,-8.309675
1001,-1.9336998,-3.1253254,-8.388638
1002,-1.9624137,-3.1779675,-8.575577
1003,-2.0078773,-3.2883365,-8.623434
1004,-2.0509481,-3.5853457,-8.563613
1005,-2.1661026,-3.8057845,-8.520542
1006,-2.3575284,-3.9927237,-8.446364
1007,-2.5516462,-4.1315074,-8.508578
1008,-2.7266214,-4.1578283,-8.556435
1009,-2.894119,-4.0812583,-8.5349
1010,-3.1025937,-4.016652,-8.460722
1011,-3.2536407,-3.8297126,-8.400602
1012,-3.301497,-3.6690943,-8.352746
1013,-3.39721,-3.295515,-8.235497
1014,-3.464508,-3.0487552,-8.043773
1015,-3.4163525,-2.8235307,-7.986345
1016,-3.2440693,-2.629413,-7.986345
1017,-2.8630123,-2.5935206,-8.062915
1018,-2.7433712,-2.5695925,-8.091629
1019,-2.3985057,-2.7086751,-8.1682
1020,-2.2402802,-2.7972097,-8.343174
1021,-2.0605195,-2.926721,-8.350353
1022,-1.9648064,-3.0200412,-8.414959
1023,-1.9193429,-3.0200412,-8.379066
1024,-1.9121644,-2.9410782,-8.206783
1025,-1.9695921,-2.8905299,-8.070093
1026,-2.1107686,-2.8474588,-7.832905
1027,-2.3431716,-2.861816,-7.550253
1028,-2.5444677,-2.9410782,-7.3609204
1029,-2.7338,-3.0535407,-7.387541
1030,-2.7984061,-3.0032916,-7.507182
1031,-2.8438697,-3.0415766,-7.545467
1032,-2.8582265,-2.943471,-7.722835
1033,-2.7361927,-2.754139,-7.7156568
1034,-2.7242286,-2.7110682,-7.682157
1035,-2.566003,-2.6461627,-7.9097743
1036,-2.417648,-2.656033,-7.9313097
1037,-2.2642083,-2.6895328,-8.046165
1038,-2.1158533,-2.7876384,-8.235497
1039,-2.0078773,-2.861816,-8.470293
1040,-1.91695,-2.8139594,-8.745767
1041,-1.820938,-2.7589245,-9.02124
1042,-1.8667008,-2.6389842,-9.095418
1043,-2.0748763,-2.4451656,-9.207881
1044,-2.2713869,-2.4451656,-9.193523
1045,-2.5803602,-2.5600212,-9.22463
1046,-2.8677979,-2.725425,-9.260822
1047,-3.0978081,-2.7996025,-9.294321
1048,-3.3326037,-2.8785655,-9.231809
1049,-3.5171502,-2.8283165,-9.121739
1050,-3.6200416,-2.7302105,-8.978169
1051,-3.802195,-2.5983062,-8.843872
1052,-3.7591243,-2.4475584,-8.956335
1053,-3.6463625,-2.2677977,-9.179167
1054,-3.4764721,-2.1888344,-9.346964
1055,-3.1624143,-2.0210378,-9.567402
1056,-2.9036903,-2.0808585,-9.452248
1057,-2.8295128,-2.1529422,-9.416355
1058,-2.82712,-2.2462623,-9.339785
1059,-2.745764,-2.385345,-9.301499
1060,-2.6162524,-2.4332016,-9.3613205
1061,-2.5396821,-2.3901308,-9.449855
1062,-2.408077,-2.248655,-9.71815
1063,-2.3575284,-2.0234306,-9.94816
1064,-2.446362,-1.7718852,-9.945767
1065,-2.4918256,-1.6354942,-10.012766
1066,-2.5636103,-1.5729818,-10.082458
1067,-2.6715865,-1.4461622,-10.106385
1068,-2.853441,-1.4174483,-10.072886
1069,-2.9685955,-1.4150555,-9.933804
1070,-3.1432717,-1.4198412,-9.758828
1071,-3.3661032,-1.448555,-9.653543
1072,-3.505186,-1.4389837,-9.730114
1073,-3.6607196,-1.3480564,-9.799805
1074,-3.7133617,-1.2113664,-9.885947
1075,-3.6487553,-0.80189466,-10.106385
1076,-3.4908292,-0.715454,-10.11835
1077,-3.4331024,-0.66041905,-10.223634
1078,-3.330211,-0.7178468,-10.261919
1079,-3.301497,-0.93589276,-10.214063
1080,-3.3589249,-1.1347961,-10.216455
1081,-3.4307094,-1.3046865,-10.309775
1082,-3.382853,-1.2496517,-10.44168
1083,-3.2488549,-1.230509,-10.688439
1084,-3.251248,-1.2735798,-10.827224
1085,-3.2775688,-1.2592229,-11.073983
1086,-3.313461,-1.2711871,-11.265708
1087,-3.4043884,-1.2687942,-11.363813
1088,-3.6846478,-1.2496517,-11.313564
1089,-3.8476589,-1.1754742,-11.315957
1090,-3.8668015,-1.1467602,-11.215459
1091,-3.9987056,-0.9382856,-11.181959
1092,-4.0848475,-0.7680961,-11.146067
1093,-4.1015973,-0.6987042,-11.062019
1094,-4.2741795,-0.66999036,-11.090733
1095,-4.3292146,-0.715454,-11.023734
1096,-4.336393,-0.8712866,-11.006984
1097,-4.19731,-0.8234301,-11.287244
1098,-3.9457645,-0.71306115,-11.4287195
1099,-3.739982,-0.63170516,-11.407184
1100,-3.4621153,-0.51445687,-11.320743
1101,-3.2967114,-0.5407779,-11.2704935
1102,-3.1552358,-0.634098,-11.122139
1103,-2.9973094,-0.72263247,-11.205888
1104,-3.0475588,-0.79471624,-11.308779
1105,-3.124129,-0.9741779,-11.097912
1106,-3.2368908,-0.95742816,-10.724332
1107,-3.5004005,-0.9095717,-10.563714
1108,-3.560221,-0.79950184,-10.44168
1109,-3.5339,-0.72741807,-10.324431
1110,-3.4740794,-0.7369894,-10.070493
1111,-3.4139597,-0.811466,-9.8428755
1112,-3.3326037,-1.0534402,-9.538689
1113,-3.301497,-1.3384851,-9.346964
1114,-3.3062828,-1.5179468,-9.155238
1115,-3.1671999,-1.7934206,-9.150453
1116,-3.1719856,-2.0210378,-9.188738
1117,-3.1073792,-2.196013,-9.275179
1118,-3.0786655,-2.2271197,-9.457033
1119,-2.9590242,-2.0090737,-9.485747
1120,-2.8031917,-1.8535402,-9.545867
1121,-2.7314072,-1.7551354,-9.476176
1122,-2.693122,-1.678565,-9.576974
1123,-2.7146573,-1.5681962,-9.5506525
1124,-2.9183464,-1.355235,-9.234201
1125,-2.949453,-1.3336995,-9.2126665
1126,-3.1719856,-1.2927225,-8.965906
1127,-3.2009985,-1.3022938,-8.941978
1128,-3.1193435,-1.4126626,-8.941978
1129,-3.0020952,-1.4772689,-9.229416
1130,-2.6186452,-1.6163517,-9.425926
1131,-2.3503501,-1.6737795,-9.490533
1132,-2.2354946,-1.7766708,-9.567402
1133,-2.137389,-1.9947168,-9.555438
1134,-2.2019951,-2.2582264,-9.536296
1135,-2.3407788,-2.3949163,-9.586545
1136,-2.6548367,-2.5169504,-9.605687
1137,-2.8630123,-2.5265217,-9.524331
1138,-3.3230324,-2.6919255,-9.351749
1139,-3.5267215,-2.5384858,-9.330214
1140,-3.5961134,-2.2271197,-9.358928
1141,-3.5626137,-2.0377877,-9.2895355
1142,-3.5362928,-1.707279,-9.095418
1143,-3.5362928,-1.6522441,-8.913264
1144,-3.3206396,-1.692922,-8.860622
1145,-3.083451,-1.7790636,-8.990134
1146,-2.9255247,-1.8750757,-9.047562
1147,-2.6811578,-1.9564316,-9.152845
1148,-2.4104698,-2.059323,-9.387642
1149,-2.1972094,-2.1314068,-9.639187
1150,-1.9265213,-2.1744776,-10.127921
1151,-1.7419748,-2.2414765,-10.204492
1152,-1.7347964,-2.3228326,-10.08485
1153,-1.7659031,-2.536093,-10.01516
1154,-1.8475581,-2.6485555,-9.91466
1155,-2.0964117,-2.833102,-9.792626
1156,-2.3623142,-2.9937203,-9.790234
1157,-2.7505496,-3.051148,-9.675079
1158,-3.1576285,-3.077469,-9.615258
1159,-3.6391842,-3.0583265,-9.521938
1160,-3.940979,-3.0798619,-9.342177
1161,-4.3794637,-2.996113,-9.009276
1162,-4.518247,-2.9865417,-8.793623
1163,-4.7339005,-3.1133614,-8.1586275
1164,-4.834698,-3.3457642,-7.5622168
1165,-4.8586264,-3.3984063,-7.167102
1166,-4.6788654,-3.281158,-6.949056
1167,-4.2308097,-3.0726833,-6.896414
1168,-3.464508,-2.7876384,-7.246065
1169,-3.1719856,-2.7158537,-7.4210405
1170,-2.4966114,-2.5025933,-7.864012
1171,-2.0078773,-2.3901308,-8.110771
1172,-1.5502499,-2.3012972,-8.326425
1173,-1.1742777,-2.277369,-8.525328
1174,-0.8964112,-2.3949163,-8.611469
1175,-0.69272214,-2.5049863,-8.637791
1176,-0.6113662,-2.713461,-8.554042
1177,-0.73818576,-3.132504,-8.379066
1178,-1.0642079,-3.3433714,-8.163414
1179,-1.4449657,-3.4366915,-7.90469
1180,-1.9002002,-3.5063825,-7.7611203
1181,-2.2785654,-3.4872398,-7.6534433
1182,-2.6282165,-3.4680972,-7.5406814
1183,-2.8438697,-3.3720853,-7.492825
1184,-3.1360931,-3.242873,-7.356135
1185,-3.4043884,-2.9219356,-7.004091
1186,-3.4860435,-2.8905299,-6.8724856
1187,-3.6248271,-2.8378878,-6.6927247
1188,-3.5913277,-2.9458637,-6.7238317
1189,-3.3756745,-3.065505,-6.9562345
1190,-2.882155,-3.309872,-7.5981092
1191,-2.3961127,-3.4585261,-8.003095
1192,-2.134996,-3.5733814,-8.285747
1193,-1.8523438,-3.661916,-8.48465
1194,-1.5984055,-3.7794633,-8.625827
1195,-1.4736797,-3.879962,-8.65454
1196,-1.3106686,-3.9852462,-8.656933
1197,-1.3010973,-4.069294,-8.7577305
1198,-1.2963116,-4.011866,-8.786445
1199,-1.495215,-3.8847475,-8.793623
1200,-1.6821543,-3.7627137,-8.733803
1201,-1.8400806,-3.6978083,-8.774481
1202,-2.094019,-3.6284165,-8.697611
1203,-2.4104698,-3.56381,-8.637791
1204,-2.6042883,-3.513561,-8.568398
1205,-2.7649066,-3.5087752,-8.546864
1206,-3.0020952,-3.44387,-8.422137
1207,-3.1432717,-3.374478,-8.369495
1208,-3.2201412,-3.3577285,-8.283354
1209,-3.205784,-3.3314073,-8.175676
1210,-3.100201,-3.3170505,-8.194819
1211,-3.042773,-3.3696926,-8.187641
1212,-2.9255247,-3.35055,-8.247461
1213,-2.7242286,-3.3553355,-8.482257
1214,-2.542075,-3.214159,-8.494222
1215,-2.4726832,-3.0152557,-8.518149
1216,-2.3790638,-2.900101,-8.549256
1217,-2.3575284,-2.7349963,-8.446364
1218,-2.3312075,-2.751746,-8.338388
1219,-2.3985057,-2.9243283,-8.245069
1220,-2.4726832,-3.0583265,-8.209176
1221,-2.5468607,-3.118147,-8.1179495
1222,-2.6548367,-3.01047,-7.986345
1223,-2.611467,-2.8761728,-7.8017983
1224,-2.635395,-2.7469604,-7.698907
1225,-2.6955147,-2.696711,-7.641479
1226,-2.7290142,-2.6895328,-7.600502
1227,-2.71705,-2.8163524,-7.7204423
1228,-2.7505496,-2.929114,-7.9169526
1229,-2.6739793,-2.9315069,-8.1682
1230,-2.6042883,-2.9120653,-8.233105
1231,-2.4296124,-2.7230322,-8.2761755
1232,-2.376671,-2.5959134,-8.259425
1233,-2.3168504,-2.548057,-8.151449
1234,-2.283351,-2.5671997,-8.055737
1235,-2.309672,-2.6198416,-8.156235
1236,-2.2187448,-2.6943183,-8.268997
1237,-2.1661026,-2.713461,-8.290532
1238,-2.0820549,-2.6512475,-8.230712
1239,-2.0461624,-2.6174488,-8.209176
1240,-2.0341983,-2.5049863,-8.165807
1241,-1.9791634,-2.478665,-8.197212
1242,-1.9336998,-2.5289145,-8.259425
1243,-1.9265213,-2.548057,-8.343174
1244,-1.9384855,-2.536093,-8.441579
1245,-2.0030916,-2.5025933,-8.582756
1246,-2.079662,-2.3973093,-8.6090765
1247,-2.3336003,-2.1936202,-8.592327
1248,-2.4487548,-2.2031915,-8.582756
1249,-2.7816563,-2.3060827,-8.637791
1250,-3.095415,-2.4714868,-8.745767
1251,-3.3254254,-2.6365914,-8.997313
1252,-3.5123646,-2.7828526,-9.246465
1253,-3.612863,-2.778067,-9.337392
1254,-3.778267,-2.7565317,-9.397213
1255,-3.8763726,-2.6485555,-9.308679
1256,-3.9625144,-2.373082,-9.143274
1257,-3.9915273,-2.1457636,-8.88455
1258,-3.9361932,-1.9181465,-8.71466
1259,-3.8356948,-1.8487546,-8.719446
1260,-3.600899,-1.8053846,-9.0595255
1261,-3.2727833,-1.7647067,-9.478569
1262,-3.05713,-1.7216359,-9.569795
1263,-2.5971098,-1.6833507,-9.8524475
1264,-2.1972094,-1.6474584,-10.060922
1265,-1.8233309,-1.7168503,-10.230812
1266,-1.6342978,-1.7312071,-10.393824
1267,-1.4521443,-1.8655044,-10.590334
1268,-1.3540385,-1.966003,-10.683654
1269,-1.4186447,-2.0018952,-10.774581
1270,-1.5358931,-1.8918254,-10.745868
1271,-1.7084754,-1.7048861,-10.659726
1272,-1.8714864,-1.4461622,-10.580463
1273,-2.0892332,-1.3121641,-10.664512
1274,-2.3001008,-1.2831511,-10.781759
1275,-2.6186452,-1.3480564,-10.971092
1276,-3.016452,-1.3863416,-11.217852
1277,-3.641577,-1.4150555,-11.303993
1278,-3.9433718,-1.5059828,-11.232208
1279,-4.1901317,-1.4653047,-10.999805
1280,-4.4225345,-1.4676976,-10.776974
1281,-4.7458644,-1.3336995,-10.4871435
1282,-4.769793,-1.2065809,-10.360324
1283,-4.7075796,-1.1060823,-10.360324
1284,-4.5448675,-0.83060855,-10.460822
1285,-4.3172503,-0.66999036,-10.781759
1286,-3.8356948,-0.4423731,-11.035698
1287,-3.6343985,-0.39930227,-11.280065
1288,-3.1624143,-0.5192425,-11.409576
1289,-2.8677979,-0.70348984,-11.469398
1290,-2.678765,-0.95742816,-11.447862
1291,-2.5588248,-1.218545,-11.423934
1292,-2.4320052,-1.2975081,-11.409576
1293,-2.5181468,-1.314557,-11.481361
1294,-2.6859434,-1.2161521,-11.608181
1295,-2.906083,-1.0582259,-11.601003
1296,-3.1313076,-0.95742816,-11.54836
1297,-3.4307094,-0.8353942,-11.356635
1298,-3.6439698,-0.6939186,-11.148459
1299,-3.7998023,-0.49980083,-10.741082
1300,-4.046562,-0.49022955,-10.439287
1301,-4.1781673,-0.5455636,-10.182956
1302,-4.2741795,-0.6197411,-10.027123
1303,-4.0178485,-0.74177504,-9.804591
1304,-3.6104703,-0.8593224,-9.873982
1305,-3.2201412,-0.96460664,-10.003195
1306,-2.9303105,-1.0797613,-9.9960165
1307,-2.48704,-1.1754742,-10.065707
1308,-2.1708884,-1.2017952,-10.154242
1309,-2.02702,-1.1922239,-10.130314
1310,-2.01027,-1.2592229,-10.214063
1311,-2.1182463,-1.3648062,-10.149456
1312,-2.3336003,-1.3695918,-10.012766
1313,-2.8677979,-1.4246268,-9.591331
1314,-3.3086755,-1.4246268,-9.323035
1315,-3.612863,-1.3911272,-9.13131
1316,-3.802195,-1.3600205,-8.978169
1317,-3.9194436,-1.2209377,-8.9013
1318,-3.9218364,-1.1467602,-8.978169
1319,-3.641577,-1.0654043,-9.16481
1320,-3.399603,-1.1922239,-9.449855
1321,-3.399603,-1.1922239,-9.449855
1322,-2.8223343,-1.4389837,-9.936196
1323,-2.4894328,-1.5900307,-10.096814
1324,-2.3072793,-1.6091732,-10.228419
1325,-2.2546372,-1.6378871,-10.283454
1326,-2.2785654,-1.6331015,-10.28824
1327,-2.4631119,-1.5083755,-10.17817
1328,-2.6449664,-1.3241283,-9.8835535
1329,-2.8677979,-1.2113664,-9.617652
1330,-2.9422746,-1.1706885,-9.423533
1331,-3.1193435,-1.1778669,-9.1719885
1332,-3.2536407,-1.1730813,-9.085847
1333,-3.263212,-1.3576277,-8.990134
1334,-3.246462,-1.489233,-9.042776
1335,-3.1624143,-1.814956,-9.246465
1336,-2.9805596,-2.1095722,-9.397213
1337,-2.96381,-2.3084757,-9.435498
1338,-2.8773692,-2.4643083,-9.41157
1339,-2.7912276,-2.4451656,-9.447462
1340,-2.7625136,-2.3925235,-9.435498
1341,-2.7672994,-2.289333,-9.253643
1342,-2.8319056,-2.236691,-9.140882
1343,-2.8893332,-2.1720848,-9.083454
1344,-2.990131,-2.1744776,-9.102596
1345,-3.0667014,-2.0928226,-9.145667
1346,-3.0355947,-1.9899311,-9.217452
1347,-2.9156544,-1.8388842,-9.337392
1348,-2.6907291,-1.6905292,-9.512367
1349,-2.4607189,-1.625923,-9.54826
1350,-2.2785654,-1.5418751,-9.529117
1351,-1.9289142,-1.5658033,-9.466604
1352,-1.7036897,-1.7359928,-9.483355
1353,-1.5119648,-1.9851454,-9.437891
1354,-1.428216,-2.2414765,-9.440284
1355,-1.2604194,-2.5504498,-9.744472
1356,-1.265205,-2.658426,-9.862019
1357,-1.5143577,-2.7445676,-9.859626
1358,-1.6893328,-2.7182465,-9.809377
1359,-2.0413768,-2.6006992,-9.521938
1360,-2.352743,-2.5983062,-9.483355
1361,-2.5995028,-2.684747,-9.4019985
1362,-2.6668007,-2.658426,-9.416355
1363,-2.7481568,-2.7086751,-9.442677
1364,-2.8295128,-2.672783,-9.485747
1365,-2.8366911,-2.6871397,-9.495318
1366,-2.8462625,-2.8594232,-9.5048895
1367,-2.9084759,-3.0056844,-9.581759
1368,-2.9398818,-3.0559337,-9.660723
1369,-2.94706,-3.0607193,-9.655936
1370,-2.9108686,-3.0008986,-9.581759
1371,-2.8582265,-3.0894332,-9.174381
1372,-2.774478,-3.1396823,-8.8701935
1373,-2.6401806,-3.3409786,-8.635398
1374,-2.515754,-3.5111682,-8.558827
1375,-2.4439692,-3.5709887,-8.558827
1376,-2.4008985,-3.5590246,-8.5779705
1377,-2.3985057,-3.3864422,-8.436495
1378,-2.4320052,-3.1492536,-8.285747
1379,-2.4631119,-3.0942187,-8.129914
1380,-2.4846473,-2.9530423,-8.058129
1381,-2.527718,-2.6799614,-8.122736
1382,-2.5061827,-2.4044876,-7.9767733
1383,-2.515754,-2.1433709,-7.8496547
1384,-2.4894328,-2.0832512,-7.763513
1385,-2.3670998,-2.129014,-7.773084
1386,-2.3001008,-2.3084757,-7.8927255
1387,-2.1828525,-2.4882364,-7.9983087
1388,-2.1107686,-2.737389,-8.005487
1389,-2.1278176,-2.8546374,-8.058129
1390,-2.1083758,-3.1253254,-7.91456
1391,-2.0988045,-3.2763724,-7.832905
1392,-2.0988045,-3.4704902,-7.804191
1393,-2.1011975,-3.5039897,-7.6340017
1394,-2.0198414,-3.4824543,-7.590931
1395,-1.8906289,-3.3672996,-7.6390862
1396,-1.8281165,-3.3385859,-7.763513
1397,-1.6271194,-3.2596226,-7.9313097
1398,-1.442573,-3.2380872,-8.16102
1399,-1.4210376,-3.2285159,-8.312068
1400,-1.3899308,-3.295515,-8.520542
1401,-1.4234303,-3.417549,-8.664112
1402,-1.5167505,-3.5231323,-8.776874
1403,-1.7204394,-3.7097723,-8.697611
1404,-1.8978075,-3.7794633,-8.630612
1405,-2.065305,-3.8727834,-8.556435
1406,-2.2498515,-3.9349968,-8.573184
1407,-2.4559333,-3.822534,-8.70479
1408,-2.6620152,-3.772285,-8.733803
1409,-2.800799,-3.661916,-8.769695
1410,-2.8869405,-3.5997026,-8.779266
1411,-3.0116663,-3.3696926,-8.656933
1412,-3.0212376,-3.2596226,-8.712267
1413,-3.0619156,-3.321836,-8.743374
1414,-3.0906296,-3.6308093,-8.664112
1415,-3.124129,-3.8560338,-8.76491
1416,-3.0284162,-4.083651,-8.7577305
1417,-3.0260234,-4.126722,-8.786445
1418,-3.0020952,-4.011866,-8.755338
1419,-2.9997022,-3.8009987,-8.819944
1420,-3.0140593,-3.5853457,-8.79123
1421,-2.9853454,-3.5733814,-8.76491
1422,-2.9132617,-3.5901313,-8.76491
1423,-2.9590242,-3.58056,-8.7673025
1424,-2.8965118,-3.6786656,-8.812766
1425,-2.8031917,-3.7674992,-8.793623
1426,-2.7601209,-3.757928,-8.772088
1427,-2.652444,-3.7627137,-8.79123
1428,-2.542075,-3.6786656,-8.786445
1429,-2.3742783,-3.6451662,-8.774481
1430,-2.2785654,-3.5327036,-8.70479
1431,-2.2331018,-3.5327036,-8.67129
1432,-2.2211375,-3.5614173,-8.635398
1433,-2.2474587,-3.6954155,-8.678469
1434,-2.3288147,-3.8201413,-8.664112
1435,-2.420041,-3.8847475,-8.566006
1436,-2.4798615,-3.8344984,-8.393424
1437,-2.501397,-3.8344984,-8.402995
1438,-2.594717,-3.67388,-8.295318
1439,-2.527718,-3.5997026,-8.235497
1440,-2.5899315,-3.5422747,-8.333603
1441,-2.5779674,-3.4537404,-8.376674
1442,-2.5468607,-3.3984063,-8.412566
1443,-2.5588248,-3.3050864,-8.335996
1444,-2.5109682,-3.1827533,-8.252247
1445,-2.4942186,-3.1468608,-8.211569
1446,-2.5325036,-3.170789,-8.1179495
1447,-2.4320052,-3.2309089,-8.077271
1448,-2.4607189,-3.2309089,-8.043773
1449,-2.4032912,-3.24048,-8.046165
1450,-2.297708,-3.170789,-8.132307
1451,-2.2378874,-3.1133614,-8.096415
1452,-2.2378874,-3.0559337,-8.122736
1453,-2.2235305,-3.0056844,-8.0868435
1454,-2.309672,-2.914458,-7.955238
1455,-2.408077,-2.8378878,-7.7994056
1456,-2.39372,-2.792424,-7.545467
1457,-2.3312075,-2.8474588,-7.1862445
1458,-2.3001008,-2.955435,-7.1216383
1459,-2.187638,-3.065505,-7.0375905
1460,-2.0413768,-3.2237303,-7.1216383
1461,-1.9073788,-3.283551,-7.171888
1462,-1.7659031,-3.321836,-7.289136
1463,-1.5984055,-3.2045877,-7.4473615
1464,-1.5864414,-3.1085758,-7.5526457
1465,-1.4521443,-2.9168508,-7.7443705
1466,-1.4569299,-2.8929226,-7.87119
1467,-1.5311074,-2.9195428,-7.9911304
1468,-1.5741782,-2.9578278,-8.062915
1469,-1.7252251,-2.9048867,-8.103593
1470,-1.8161523,-2.8139594,-8.110771
1471,-1.9336998,-2.6389842,-8.0677
1472,-2.0676978,-2.4762723,-8.0868435
1473,-2.1637099,-2.4690938,-8.144271
1474,-2.3216362,-2.4930222,-8.319246
1475,-2.5181468,-2.603092,-8.4679
1476,-2.6162524,-2.6413772,-8.539685
1477,-2.693122,-2.7349963,-8.487042
1478,-2.7098715,-2.8235307,-8.503793
1479,-2.82712,-2.885744,-8.470293
1480,-2.8869405,-2.861816,-8.556435
1481,-2.8366911,-2.8642087,-8.668898
1482,-2.8582265,-2.8163524,-8.774481
1483,-2.7912276,-2.7397819,-8.865408
1484,-2.8438697,-2.6536403,-9.13131
1485,-2.7960134,-2.6054847,-9.265608
1486,-2.784049,-2.5121646,-9.445069
1487,-2.7936203,-2.521736,-9.53151
1488,-2.6401806,-2.562414,-9.363713
1489,-2.6138597,-2.6991038,-9.323035
1490,-2.611467,-2.7182465,-9.485747
1491,-2.606681,-2.6536403,-9.646365
1492,-2.4822545,-2.521736,-9.885947
1493,-2.4631119,-2.3491535,-10.053743
1494,-2.3814569,-2.2151556,-10.173385
1495,-2.3144577,-1.937289,-10.456037
1496,-2.324029,-1.6809579,-10.592727
1497,-2.5061827,-1.6618153,-10.539785
1498,-2.7218359,-1.6857436,-10.511071
1499,-3.0068808,-1.7048861,-10.523036
1500,-3.2153554,-1.7096717,-10.453644
1501,-3.3924243,-1.7383857,-10.360324
1502,-3.4621153,-1.707279,-10.214063
1503,-3.531507,-1.5948163,-10.103992
1504,-3.5697923,-1.5251254,-10.077672
1505,-3.6056845,-1.585245,-9.991231
1506,-3.5961134,-1.5948163,-10.120743
1507,-3.6750765,-1.6019948,-10.302597
1508,-3.7157545,-1.5948163,-10.484751
1509,-3.6367912,-1.556232,-10.619048
1510,-3.6056845,-1.5227325,-10.832009
1511,-3.5171502,-1.4844474,-10.930414
1512,-3.4331024,-1.5394822,-11.016556
1513,-3.246462,-1.5251254,-11.114661
1514,-3.1839497,-1.5155541,-11.100305
1515,-3.1552358,-1.4940187,-11.100305
1516,-3.1600213,-1.2568301,-11.141281
1517,-3.2871401,-1.1036894,-11.208281
1518,-3.3469608,-0.959821,-11.112268
1519,-3.4019957,-0.9000004,-10.944771
1520,-3.4307094,-0.9023932,-10.800902
1521,-3.5291142,-0.9550353,-10.858629
1522,-3.4836507,-1.0869397,-10.858629
1523,-3.452544,-1.0845468,-10.9017
1524,-3.4187453,-1.0989038,-10.963913
1525,-3.2871401,-0.9526425,-11.021341
1526,-3.205784,-0.8282157,-11.073983
1527,-3.1289146,-0.67477596,-11.083554
1528,-3.0523443,-0.6197411,-10.978271
1529,-2.9853454,-0.64606214,-10.999805
1530,-3.0667014,-0.8210373,-10.96152
1531,-3.1456645,-0.9311071,-10.944771
1532,-3.2153554,-0.9813564,-10.774581
1533,-3.2105699,-0.9981061,-10.616655
1534,-3.2656047,-0.9693923,-10.530214
1535,-3.2488549,-0.98614204,-10.494322
1536,-3.19382,-1.0749756,-10.448858
1537,-3.138486,-1.0917253,-10.513465
1538,-3.0619156,-1.2999009,-10.513465
1539,-3.05713,-1.2520444,-10.51825
1540,-2.96381,-1.2759727,-10.47518
1541,-2.9542387,-1.314557,-10.317253
1542,-2.9108686,-1.3336995,-10.432109
1543,-2.894119,-1.3094722,-10.401002
1544,-2.8582265,-1.3648062,-10.403395
1545,-2.9255247,-1.2783655,-10.309775
1546,-2.9566314,-1.3046865,-10.103992
1547,-3.1217363,-1.4653047,-9.859626
1548,-3.1600213,-1.5394822,-9.689436
1549,-3.2967114,-1.8726828,-9.452248
1550,-3.3876386,-2.0665014,-9.299107
1551,-3.4597225,-2.3084757,-9.260822
1552,-3.3852458,-2.3829522,-9.41157
1553,-3.3182468,-2.370689,-9.392427
1554,-3.1193435,-2.289333,-9.538689
1555,-3.0595229,-2.085644,-9.560224
1556,-2.9709885,-1.9181465,-9.742078
1557,-2.82712,-1.7407784,-9.845269
1558,-2.6883361,-1.5586249,-9.9553385
1559,-2.6282165,-1.4246268,-9.967302
1560,-2.5205395,-1.4102699,-9.924232
1561,-2.527718,-1.3671991,-9.94816
1562,-2.5612175,-1.355235,-10.005588
1563,-2.568396,-1.3480564,-9.840483
1564,-2.5229323,-1.4653047,-9.65833
1565,-2.4511478,-1.7120646,-9.545867
1566,-2.4104698,-1.9348962,-9.517153
1567,-2.3670998,-2.126621,-9.521938
1568,-2.3865414,-2.277369,-9.392427
1569,-2.4822545,-2.5145576,-9.231809
1570,-2.635395,-2.658426,-9.169596
1571,-2.8606195,-2.6174488,-9.128918
1572,-3.0379875,-2.4164517,-9.107382
1573,-3.1025937,-2.2151556,-9.11456
1574,-3.1624143,-1.8966111,-9.009276
1575,-3.1552358,-1.7024933,-8.834301
1576,-3.1432717,-1.8077775,-8.925228
1577,-3.1337004,-2.1095722,-8.956335
1578,-3.164807,-2.466701,-8.867801
1579,-3.1767712,-3.0032916,-8.822337
1580,-3.124129,-3.2524443,-8.803194
1581,-2.9877381,-3.2476585,-8.853444
1582,-2.6835506,-3.1420753,-9.126525
1583,-2.4655046,-2.9626136,-9.279964
1584,-2.1541386,-2.7469604,-9.315857
1585,-1.9289142,-2.545664,-9.406784
1586,-1.8329022,-2.483451,-9.440284
1587,-1.8400806,-2.4284158,-9.579367
1588,-1.9456639,-2.481058,-9.588938
1589,-2.1011975,-2.574378,-9.457033
1590,-2.420041,-2.713461,-9.299107
1591,-2.7003005,-2.8594232,-9.155238
1592,-2.7984061,-3.0535407,-8.944371
1593,-2.8486555,-3.24048,-8.748159
1594,-2.8510482,-3.295515,-8.601898
1595,-2.824727,-3.202195,-8.513364
1596,-2.774478,-3.065505,-8.340781
1597,-2.7768707,-2.972185,-8.084451
1598,-2.7338,-2.9120653,-7.8017983
1599,-2.82712,-2.9168508,-7.806584
1600,-2.9327033,-2.9386854,-7.899904
1601,-3.0595229,-2.9673991,-8.019844
1602,-3.164807,-2.8761728,-8.060522
1603,-3.3876386,-2.6943183,-7.9217386
1604,-3.5123646,-2.5025933,-7.62443
1605,-3.5745778,-2.4044876,-7.3633137
1606,-3.5434713,-2.399702,-7.2269225
1607,-3.4764721,-2.373082,-7.1455665
1608,-3.3637104,-2.385345,-7.2556367
1609,-3.0810583,-2.4882364,-7.557431
1610,-2.7026932,-2.6823542,-7.7180495
1611,-2.4224339,-2.8833513,-7.7706914
1612,-2.3024936,-2.9817562,-7.8831544
1613,-2.0724835,-3.374478,-7.9097743
1614,-1.9959131,-3.609274,-7.9073815
1615,-1.9839491,-3.9756749,-7.773084
1616,-1.91695,-4.313661,-7.6606216
1617,-1.820938,-4.464409,-7.6534433
1618,-1.7826529,-4.5003014,-7.739585
1619,-1.6845472,-4.4117665,-7.8592257
1620,-1.5717853,-4.1315074,-8.0677
1621,-1.468894,-3.5350964,-8.410173
1622,-1.4665012,-3.266801,-8.611469
1623,-1.5335002,-2.943471,-8.760123
1624,-1.6247265,-2.8259234,-8.970692
1625,-1.7443677,-2.7349963,-9.183952
1626,-1.9097716,-2.8402805,-9.363713
1627,-2.0078773,-2.972185,-9.421141
1628,-2.1708884,-3.1229327,-9.287143
1629,-2.3072793,-3.2859437,-9.037991
1630,-2.5253253,-3.6068811,-8.815159
1631,-2.6401806,-3.8751762,-8.776874
1632,-2.7672994,-4.0980077,-8.755338
1633,-2.8606195,-4.208078,-8.774481
1634,-2.9685955,-4.3519464,-8.7673025
1635,-3.016452,-4.4165525,-8.922835
1636,-3.1073792,-4.2535415,-9.035598
1637,-3.1743784,-4.0357943,-8.9877405
1638,-3.234498,-3.7890346,-8.932407
1639,-3.2584262,-3.5853457,-8.745767
1640,-3.2009985,-3.4872398,-8.721839
1641,-3.2009985,-3.3457642,-8.568398
1642,-3.100201,-3.2309089,-8.5349
1643,-2.923132,-3.283551,-8.426923
1644,-2.745764,-3.441477,-8.362317
1645,-2.5109682,-3.5997026,-8.381459
1646,-2.2091734,-3.7794633,-8.455936
1647,-2.0437696,-3.8368912,-8.434102
1648,-1.8424734,-3.8775692,-8.678469
1649,-1.6749759,-3.7627137,-8.843872
1650,-1.5382859,-3.6020954,-8.978169
1651,-1.5047864,-3.460919,-9.045169
1652,-1.5287145,-3.3864422,-8.956335
1653,-1.6390835,-3.226123,-8.736196
1654,-1.986342,-3.3050864,-8.56122
1655,-2.408077,-3.417549,-8.460722
1656,-2.6596224,-3.4896326,-8.362317
1657,-3.030809,-3.5279179,-8.16102
1658,-3.1337004,-3.4944184,-8.038987
1659,-3.2321053,-3.4007993,-7.90469
1660,-3.2105699,-3.281158,-7.864012
1661,-3.0523443,-3.2117662,-7.91456
1662,-2.7505496,-3.1827533,-8.02463
1663,-2.3985057,-3.1827533,-8.285747
1664,-2.2354946,-3.1540394,-8.633005
1665,-2.0844476,-3.202195,-8.784052
1666,-1.9911275,-3.161218,-8.750552
1667,-2.0318055,-3.1516466,-8.525328
1668,-2.1254246,-3.144468,-8.304889
1669,-2.149353,-3.065505,-8.110771
1670,-2.2259233,-2.996113,-7.945667
1671,-2.2378874,-3.036791,-7.739585
1672,-2.3790638,-3.0272198,-7.682157
1673,-2.4631119,-3.1085758,-7.6606216
1674,-2.4774687,-3.1348968,-7.6797643
1675,-2.556432,-3.1636107,-7.6749787
1676,-2.4966114,-3.0846474,-7.6510506
1677,-2.4822545,-3.0535407,-7.5311103
1678,-2.3312075,-3.075076,-7.3226357
1679,-2.3048863,-3.1540394,-7.265208
1680,-2.2546372,-3.362514,-7.2436724
1681,-2.2139592,-3.566203,-7.370791
1682,-2.1011975,-3.5853457,-7.576574
1683,-2.0030916,-3.5350964,-7.725228
1684,-1.9073788,-3.2572298,-7.832905
1685,-1.91695,-3.0343983,-7.820941
1686,-1.9935204,-2.8235307,-7.8089767
1687,-2.105983,-2.631806,-7.804191
1688,-2.228316,-2.5241287,-7.873583
1689,-2.312065,-2.5600212,-7.8903327
1690,-2.50379,-2.7326035,-7.9743805
1691,-2.6473591,-2.7852457,-8.149056
1692,-2.7984061,-2.9243283,-8.206783
1693,-2.882155,-2.8833513,-8.302496
1694,-2.9781668,-2.8953154,-8.355139
1695,-3.0140593,-2.8283165,-8.240283
1696,-2.9255247,-2.6222346,-8.266604
1697,-2.9036903,-2.495415,-8.386245
1698,-2.812763,-2.426023,-8.482257
1699,-2.6979074,-2.344368,-8.680861
1700,-2.5803602,-2.2534406,-8.9877405
1701,-2.4774687,-2.1337996,-9.268001
1702,-2.417648,-1.9085752,-9.461819
1703,-2.3072793,-1.707279,-9.5506525
1704,-2.309672,-1.7096717,-9.574581
1705,-2.2857437,-1.625923,-9.600902
1706,-2.364707,-1.719243,-9.586545
1707,-2.5205395,-1.966003,-9.567402
1708,-2.6835506,-1.9947168,-9.507282
1709,-2.7984061,-2.0928226,-9.553045
1710,-2.906083,-2.059323,-9.569795
1711,-3.0284162,-2.0282164,-9.773185
1712,-3.112165,-1.9277177,-9.814162
1713,-3.2297122,-1.8918254,-10.099207
1714,-3.2823544,-1.8750757,-10.252348
1715,-3.437888,-1.9133608,-10.420144
1716,-3.694219,-1.9612173,-10.511071
1717,-3.9963129,-2.0521445,-10.460822
1718,-4.154239,-2.0928226,-10.353146
1719,-4.267001,-2.114358,-10.23799
1720,-4.269394,-1.992324,-10.132707
1721,-4.2068815,-1.6737795,-9.931411
1722,-3.979264,-1.3648062,-9.905089
1723,-3.641577,-1.1371889,-10.113564
1724,-3.3326037,-0.90478605,-10.422537
1725,-3.0260234,-0.7369894,-10.645369
1726,-2.7122645,-0.59342,-10.805688
1727,-2.5348964,-0.55752766,-10.978271
1728,-2.283351,-0.64845496,-11.244173
1729,-2.1948166,-0.8330014,-11.31835
1730,-2.2211375,-1.0677971,-11.332707
1731,-2.4248266,-1.3241283,-11.153245
1732,-2.6979074,-1.4988043,-10.932807
1733,-3.1986058,-1.5346966,-10.829617
1734,-3.5650067,-1.4844474,-10.7482605
1735,-3.845266,-1.3313067,-10.674083
1736,-4.022634,-1.2711871,-10.633405
1737,-4.21406,-1.1419746,-10.681261
1738,-4.4225345,-0.9933205,-10.743475
1739,-5.8767724,-0.9454641,-12.547363
1740,-4.5472603,0.043968115,-10.3340025
1741,-3.7061832,-0.23868406,-11.196317
1742,-3.1600213,-0.77796644,-11.006984
1743,-2.5803602,-0.9311071,-11.217852
1744,-2.2618155,-0.9765707,-9.986445
1745,-2.8055844,-1.2089736,-10.626226
1746,-3.354139,-1.2544373,-10.266705
1747,-3.493222,-1.1659029,-9.459426
1748,-3.9338005,-1.314557,-10.024731
1749,-4.1494536,-1.3743775,-10.549356
1750,-4.1781673,-1.1228321,-11.481361
1751,-4.2332025,-0.4639085,-12.523436
1752,-4.2020955,0.019740786,-11.210673
1753,-3.9026937,0.12532409,-10.741082
1754,-3.4980075,0.0029910284,-10.839188
1755,-3.2153554,-0.39451665,-10.585548
1756,-3.3230324,-0.8545368,-10.293026
1757,-3.1480572,-1.055833,-9.929018
1758,-2.879762,-1.1946167,-9.926624
1759,-2.6668007,-1.3313067,-10.276276
1760,-2.4439692,-1.3241283,-10.741082
1761,-2.2761726,-1.2664014,-10.925629
1762,-2.3264217,-1.2281163,-10.824831
1763,-2.501397,-1.1371889,-10.566107
1764,-2.623431,-1.1324034,-10.242777
1765,-2.853441,-1.1659029,-9.617652
1766,-3.083451,-1.2927225,-9.325428
1767,-3.2943187,-1.4222339,-9.203095
1768,-3.411567,-1.5346966,-9.162417
1769,-3.4597225,-1.5777674,-9.287143
1770,-3.5027933,-1.5370895,-9.370892
1771,-3.342175,-1.599602,-9.447462
1772,-3.205784,-1.7240287,-9.490533
1773,-2.990131,-1.8388842,-9.560224
1774,-2.8486555,-1.8583258,-9.6224375
1775,-2.6572297,-1.8436699,-9.7348995
1776,-2.4702902,-1.5251254,-9.823733
1777,-2.3718855,-1.4054842,-9.907482
1778,-2.268994,-1.1874382,-10.000802
1779,-2.297708,-1.1108679,-10.130314
1780,-2.4607189,-1.1970096,-9.96491
1781,-2.7553353,-1.2927225,-9.795019
1782,-3.042773,-1.4461622,-9.47139
1783,-3.1576285,-1.6498512,-9.320642
1784,-3.234498,-1.7599211,-9.152845
1785,-3.2105699,-1.9827527,-9.083454
1786,-3.045166,-2.097608,-9.104989
1787,-2.824727,-2.114358,-9.222238
1788,-2.4678974,-2.1385853,-9.54826
1789,-2.3742783,-2.0808585,-9.620045
1790,-2.1541386,-1.9683957,-9.924232
1791,-2.1035903,-1.8607187,-10.029516
1792,-2.312065,-1.9396819,-9.876375
1793,-2.6186452,-2.0306091,-9.651151
1794,-2.8366911,-2.0617158,-9.543474
1795,-3.0906296,-2.1505494,-9.416355
1796,-3.3756745,-2.1816561,-9.238987
1797,-3.3876386,-2.184049,-9.155238
1798,-3.3445678,-2.2223341,-9.045169
1799,-3.179164,-2.2821546,-9.05474
1800,-2.9446673,-2.4643083,-9.167203
1801,-2.784049,-2.4499512,-9.373284
1802,-2.6330023,-2.4427729,-9.536296
1803,-2.6282165,-2.495415,-9.679865
1804,-2.6018956,-2.5408785,-9.646365
1805,-2.6835506,-2.574378,-9.6631155
1806,-2.745764,-2.5935206,-9.643972
1807,-2.8510482,-2.6413772,-9.629616
1808,-2.8486555,-2.7637103,-9.390035
1809,-2.8677979,-2.8642087,-9.294321
1810,-2.705086,-2.984149,-9.217452
1811,-2.5803602,-2.9937203,-9.291928
1812,-2.420041,-2.8426733,-9.291928
1813,-2.2091734,-2.87378,-9.119347
1814,-2.1254246,-2.900101,-9.076276
1815,-1.9839491,-2.9937203,-9.006884
1816,-1.8930218,-3.091826,-9.064311
1817,-1.9049859,-3.2309089,-9.004491
1818,-1.9815563,-3.3122647,-8.879765
1819,-2.0844476,-3.295515,-8.7266245
1820,-2.2737796,-3.309872,-8.386245
1821,-2.4367907,-3.269194,-8.209176
1822,-2.458326,-3.1926236,-7.9648094
1823,-2.4535406,-3.1277182,-7.789834
1824,-2.324029,-2.8546374,-7.643872
1825,-2.137389,-2.6078775,-7.6340017
1826,-1.9265213,-2.3539393,-7.6797643
1827,-1.6749759,-2.2007985,-7.732406
1828,-1.5622141,-2.129014,-7.8089767
1829,-1.5047864,-2.0665014,-7.6797643
1830,-1.6342978,-2.1242282,-7.5693955
1831,-1.7754744,-2.248655,-7.5119677
1832,-2.0413768,-2.4762723,-7.4210405
1833,-2.2211375,-2.7732813,-7.411469
1834,-2.3814569,-2.8402805,-7.4210405
1835,-2.542075,-3.1468608,-7.339385
1836,-2.6739793,-3.4366915,-7.4234333
1837,-2.7026932,-3.5829527,-7.476075
1838,-2.693122,-3.67388,-7.665407
1839,-2.635395,-3.67388,-7.844869
1840,-2.568396,-3.6595232,-7.9600234
1841,-2.4678974,-3.5111682,-8.003095
1842,-2.4224339,-3.3864422,-7.9648094
1843,-2.3985057,-3.2500513,-7.820941
1844,-2.364707,-3.2189445,-7.8113694
1845,-2.3479571,-3.2476585,-7.763513
1846,-2.2498515,-3.3840494,-7.8592257
1847,-2.1972094,-3.4561331,-7.943274
1848,-2.0030916,-3.5614173,-8.27139
1849,-1.8762721,-3.5614173,-8.482257
1850,-1.6917256,-3.4390843,-8.774481
1851,-1.4784653,-3.3266218,-8.906086
1852,-1.3277174,-3.2213376,-9.052347
1853,-1.2628121,-3.2189445,-9.121739
1854,-1.2412767,-3.3433714,-9.195916
1855,-1.2867404,-3.501597,-9.268001
1856,-1.442573,-3.6906297,-9.2895355
1857,-1.7850457,-3.918247,-9.215059
1858,-2.1780667,-4.1051865,-9.102596
1859,-2.5492535,-4.1817565,-9.093025
1860,-2.8295128,-4.191328,-9.150453
1861,-3.140879,-4.002295,-9.126525
1862,-3.3637104,-3.7914274,-9.023633
1863,-3.5817564,-3.5303106,-8.953942
1864,-3.679862,-3.391228,-8.9108715
1865,-3.8261235,-3.2907293,-8.805588
1866,-3.8620157,-3.2715867,-8.618649
1867,-3.7830527,-3.4390843,-8.453544
1868,-3.6080775,-3.5207393,-8.400602
1869,-3.423531,-3.568596,-8.453544
1870,-2.9781668,-3.5853457,-8.5349
1871,-2.515754,-3.5111682,-8.551649
1872,-2.105983,-3.4633117,-8.661719
1873,-1.8185452,-3.4776685,-8.68804
1874,-1.4856437,-3.441477,-8.68804
1875,-1.2843475,-3.4657044,-8.729017
1876,-1.2077773,-3.4752758,-8.697611
1877,-1.1455638,-3.513561,-8.558827
1878,-1.265205,-3.501597,-8.455936
1879,-1.4042878,-3.4537404,-8.302496
1880,-1.6438692,-3.2333016,-8.266604
1881,-1.8619151,-3.0798619,-8.321639
1882,-2.1011975,-2.9650064,-8.304889
1883,-2.3841486,-2.929114,-8.242676
1884,-2.5372894,-2.8905299,-8.247461
1885,-2.786442,-2.8977082,-8.180463
1886,-2.9156544,-2.984149,-8.137093
1887,-3.0930223,-3.0559337,-8.029415
1888,-3.140879,-3.158825,-7.765906
1889,-3.2249267,-3.2596226,-7.5215387
1890,-3.2105699,-3.2165518,-7.3369923
1891,-3.1456645,-3.1253254,-7.236494
1892,-3.0116663,-2.9410782,-7.2963142
1893,-2.9207392,-2.8570302,-7.327421
1894,-2.7361927,-2.7756743,-7.4832535
1895,-2.4798615,-2.6246274,-7.6196446
1896,-2.2139592,-2.5648067,-7.7443705
1897,-2.0006988,-2.5767708,-7.8496547
1898,-1.8930218,-2.6461627,-7.7706914
1899,-1.7515461,-2.792424,-7.746763
1900,-1.5239289,-2.902494,-7.725228
1901,-1.3420744,-3.0056844,-7.751549
1902,-1.2005987,-3.0272198,-7.792227
1903,-1.1599208,-3.0176485,-7.7419777
1904,-1.1335998,-2.9626136,-7.820941
1905,-1.2053844,-2.821138,-7.832905
1906,-1.3564314,-2.6656044,-7.993523
1907,-1.4234303,-2.6389842,-8.211569
1908,-1.5502499,-2.6389842,-8.482257
1909,-1.6319051,-2.6823542,-8.668898
1910,-1.849951,-2.615056,-8.810373
1911,-2.0198414,-2.5791638,-8.978169
1912,-2.2546372,-2.5432713,-8.985348
1913,-2.6018956,-2.588735,-9.009276
1914,-2.9805596,-2.672783,-9.009276
1915,-3.3517463,-2.751746,-9.061918
1916,-3.667898,-2.7421749,-9.236594
1917,-3.897908,-2.615056,-9.399606
1918,-4.1087756,-2.5145576,-9.416355
1919,-4.19731,-2.3252254,-9.483355
1920,-4.2885365,-2.07368,-9.339785
1921,-4.2451663,-1.8245273,-9.162417
1922,-4.139882,-1.6235301,-9.014062
1923,-3.9098723,-1.4389837,-8.922835
1924,-3.7328033,-1.407877,-9.002098
1925,-3.4139597,-1.3289139,-9.119347
1926,-2.9997022,-1.3600205,-9.342177
1927,-2.6401806,-1.4198412,-9.560224
1928,-2.1924238,-1.4653047,-9.790234
1929,-1.8619151,-1.5323038,-10.1446705
1930,-1.5478572,-1.5900307,-10.479965
1931,-1.3372887,-1.6211374,-10.822437
1932,-1.1479566,-1.5948163,-11.100305
1933,-1.1958131,-1.5948163,-11.236994
1934,-1.5717853,-1.719243,-11.24178
1935,-2.1158533,-1.8487546,-11.006984
1936,-2.6548367,-2.006681,-10.834402
1937,-3.2081769,-2.2414765,-10.590334
1938,-3.679862,-2.3419752,-10.369895
1939,-3.8739798,-2.3419752,-10.27149
1940,-4.1638107,-2.0258234,-9.974482
1941,-4.3962135,-1.585245,-9.785448
1942,-4.3890347,-1.2544373,-9.783055
1943,-4.21406,-1.0654043,-9.974482
1944,-4.048955,-0.9669995,-10.312168
1945,-3.7758741,-1.0076774,-10.640583
1946,-3.4283166,-1.0941181,-10.800902
1947,-3.1767712,-1.1946167,-10.836795
1948,-2.9709885,-1.3480564,-10.834402
1949,-2.9084759,-1.462912,-10.796117
1950,-2.664408,-1.5753746,-10.856236
1951,-2.6138597,-1.5876378,-10.858629
1952,-2.4918256,-1.4772689,-10.939985
1953,-2.4032912,-1.3070793,-10.990234
1954,-2.4439692,-1.1659029,-10.956735
1955,-2.556432,-1.0411769,-11.035698
1956,-2.7696922,-0.90478605,-11.078769
1957,-3.0020952,-0.7609176,-11.052447
1958,-3.3110683,-0.7704889,-10.9017
1959,-3.5769708,-0.74895346,-10.781759
1960,-3.8404803,-0.61734825,-10.652547
1961,-4.036991,-0.4758726,-10.47518
1962,-4.237988,-0.43280178,-10.470394
1963,-4.343571,-0.49501517,-10.259526
1964,-4.3962135,-0.5886344,-10.192527
1965,-4.44407,-0.6987042,-10.2571335
1966,-4.362714,-0.69152576,-10.249955
1967,-4.269394,-0.74177504,-10.240383
1968,-4.0680976,-0.7923234,-10.223634
1969,-3.8500516,-0.8449655,-10.242777
1970,-3.5817564,-0.83060855,-10.324431
1971,-3.3732817,-0.9000004,-10.367502
1972,-3.263212,-1.0076774,-10.439287
1973,-3.1986058,-1.0244272,-10.527822
1974,-3.0786655,-0.9693923,-10.6357975
1975,-3.0212376,-0.87367934,-10.803295
1976,-2.865405,-0.61734825,-10.760224
1977,-2.7792635,-0.48065826,-10.590334
1978,-2.853441,-0.5766702,-10.285848
1979,-2.8438697,-0.79471624,-10.206884
1980,-3.045166,-1.2616158,-10.17817
1981,-3.2153554,-1.6115661,-10.075279
1982,-3.4211383,-1.9827527,-10.063314
1983,-3.708576,-2.1888344,-10.106385
1984,-3.751946,-2.1601207,-10.125528
1985,-3.588935,-1.7431713,-10.453644
1986,-3.3756745,-1.2424731,-10.563714
1987,-3.152843,-0.8425727,-10.554143
1988,-3.0116663,-0.78035927,-10.535
1989,-2.9036903,-0.88325065,-10.506286
1990,-2.8917263,-1.1467602,-10.561321
1991,-3.0116663,-1.2759727,-10.230812
1992,-3.1815567,-1.3983058,-9.770792
1993,-3.3110683,-1.4772689,-9.476176
1994,-3.2847474,-1.5346966,-9.3613205
1995,-3.1600213,-1.625923,-9.392427
1996,-2.9829526,-1.8197416,-9.440284
1997,-2.7553353,-1.9181465,-9.445069
1998,-2.568396,-2.0808585,-9.485747
1999,-2.5253253,-2.0425732,-9.45464
2000,-2.5612175,-1.977967,-9.565009
2001,-2.693122,-1.7455641,-9.5506525
2002,-2.8749764,-1.585245,-9.390035
2003,-3.0690942,-1.4437693,-9.346964
2004,-3.1360931,-1.3863416,-9.256036
2005,-3.399603,-1.3815559,-9.133703
2006,-3.4354951,-1.4581263,-8.927621
2007,-3.4019957,-1.599602,-8.748159
2008,-3.164807,-1.6857436,-8.625827
2009,-2.9997022,-1.7718852,-8.697611
2010,-2.7601209,-1.9205393,-8.70479
2011,-2.458326,-1.9827527,-8.779266
2012,-2.175674,-1.9396819,-8.920443
2013,-1.8738792,-1.8340986,-9.14806
2014,-1.7300107,-1.8511474,-9.294321
2015,-1.7419748,-1.8607187,-9.529117
2016,-1.7108682,-1.910968,-9.553045
2017,-1.6366907,-2.006681,-9.478569
2018,-1.6965113,-2.1768703,-9.517153
2019,-1.7491534,-2.2319052,-9.461819
2020,-1.864308,-2.2797618,-9.459426
2021,-1.9935204,-2.4355943,-9.421141
2022,-2.0150557,-2.4164517,-9.418748
2023,-2.0485554,-2.5241287,-9.272786
2024,-2.175674,-2.5408785,-9.330214
2025,-2.4487548,-2.6126633,-9.387642
2026,-2.7314072,-2.766103,-9.370892
2027,-2.990131,-2.9315069,-9.258429
2028,-3.152843,-3.2333016,-9.066704
2029,-3.4187453,-3.501597,-9.011669
2030,-3.6200416,-3.5327036,-9.069097
2031,-3.6774693,-3.4537404,-8.836694
2032,-3.6176488,-3.187838,-8.805588
2033,-3.3517463,-3.0487552,-8.755338
2034,-3.1289146,-3.1516466,-8.695218
2035,-2.8223343,-3.321836,-8.745767
2036,-2.556432,-3.3385859,-8.815159
2037,-2.3431716,-3.2787652,-8.843872
2038,-2.0437696,-3.1636107,-8.891729
2039,-1.9624137,-2.984149,-8.721839
2040,-1.672583,-2.902494,-8.515757
2041,-1.5693926,-2.8833513,-8.312068
2042,-1.4904294,-2.8977082,-8.410173
2043,-1.4186447,-2.900101,-8.5014
2044,-1.21017,-2.8498518,-8.489435
2045,-1.1048858,-2.833102,-8.388638
2046,-1.2029916,-2.8426733,-8.252247
2047,-1.361217,-2.8474588,-8.295318
2048,-1.5167505,-2.8929226,-8.321639
2049,-1.5936198,-2.8666015,-8.245069
2050,-1.9049859,-2.696711,-8.213962
2051,-2.134996,-2.6389842,-8.141878
2052,-2.5995028,-2.713461,-8.050951
2053,-2.7792635,-2.754139,-8.153842
2054,-3.1360931,-2.8259234,-8.245069
2055,-3.437888,-2.8977082,-8.316854
2056,-3.6176488,-2.821138,-8.1347
2057,-3.6750765,-2.6751757,-7.8592257
2058,-3.5530424,-2.6102705,-7.54786
2059,-3.4187453,-2.5504498,-7.4808607
2060,-3.112165,-2.8259234,-7.4186473
2061,-2.8319056,-3.1516466,-7.4976106
2062,-2.5851457,-3.4680972,-7.722835
2063,-2.309672,-3.712165,-7.9480596
2064,-2.0868404,-3.9493537,-8.043773
2065,-1.9121644,-4.2610188,-8.108378
2066,-1.7156538,-4.447659,-8.197212
2067,-1.5840486,-4.543671,-8.280961
2068,-1.4521443,-4.4668016,-8.388638
2069,-1.454537,-4.2296133,-8.621041
2070,-1.5693926,-3.8967116,-8.815159
2071,-1.7635103,-3.6044881,-8.980562
2072,-1.9648064,-3.4127634,-9.258429
2073,-2.1230319,-3.35055,-9.342177
2074,-2.39372,-3.3026934,-9.279964
2075,-2.5779674,-3.3074791,-9.176774
2076,-2.7816563,-3.4537404,-8.915657
2077,-3.0332017,-3.661916,-8.644969
2078,-3.1217363,-3.8656049,-8.554042
2079,-3.0762727,-3.987639,-8.499007
2080,-3.0284162,-4.019045,-8.616255
2081,-2.8749764,-3.839284,-8.908479
2082,-2.7385855,-3.6523447,-8.939586
2083,-2.5899315,-3.5494533,-8.985348
2084,-2.5181468,-3.501597,-8.956335
2085,-2.4774687,-3.5733814,-8.898908
2086,-2.4942186,-3.7363925,-8.690433
2087,-2.5803602,-3.8895333,-8.494222
2088,-2.6018956,-4.0214376,-8.379066
2089,-2.5325036,-4.0310087,-8.453544
2090,-2.4894328,-3.9565322,-8.611469
2091,-2.3048863,-3.7073796,-8.729017
2092,-2.105983,-3.484847,-8.898908
2093,-1.9360926,-3.4079776,-8.965906
2094,-1.8595223,-3.2763724,-9.011669
2095,-1.8161523,-3.2763724,-8.939586
2096,-1.8475581,-3.4271202,-8.841479
2097,-1.971985,-3.6236308,-8.656933
2098,-2.1661026,-3.9349968,-8.510971
2099,-2.3455644,-4.15065,-8.539685
2100,-2.3865414,-4.1386857,-8.630612
2101,-2.3913271,-4.0238304,-8.695218
2102,-2.4224339,-3.731607,-8.79123
2103,-2.364707,-3.5590246,-8.71466
2104,-2.446362,-3.513561,-8.721839
2105,-2.5061827,-3.4920256,-8.717052
2106,-2.5851457,-3.5614173,-8.707183
2107,-2.705086,-3.5973098,-8.460722
2108,-2.8079774,-3.6906297,-8.278568
2109,-2.879762,-3.8081772,-8.120343
2110,-2.9012976,-3.8297126,-8.055737
2111,-2.705086,-3.7507496,-8.156235
2112,-2.5731816,-3.7292142,-8.307282
2113,-2.4702902,-3.661916,-8.352746
2114,-2.2331018,-3.5159538,-8.391031
2115,-2.0509481,-3.4561331,-8.312068
2116,-2.0174487,-3.3433714,-8.34796
2117,-1.9121644,-3.3433714,-8.266604
2118,-1.8400806,-3.3314073,-8.153842
2119,-1.8257236,-3.2859437,-7.9480596
2120,-1.8065811,-3.3266218,-7.708478
2121,-1.8257236,-3.35055,-7.545467
2122,-1.8810577,-3.5470605,-7.4593253
2123,-1.9384855,-3.6451662,-7.576574
2124,-1.9002002,-3.6308093,-7.6678
2125,-1.9791634,-3.5159538,-7.706085
2126,-1.986342,-3.3194432,-7.7180495
2127,-2.0676978,-3.065505,-7.658229
2128,-2.134996,-2.9362924,-7.6630144
2129,-2.1684954,-2.804388,-7.648658
2130,-2.2307088,-2.7062824,-7.643872
2131,-2.2785654,-2.751746,-7.559824
2132,-2.2713869,-2.7493532,-7.4976106
2133,-2.1011975,-2.8354948,-7.516753
2134,-1.9791634,-2.9913275,-7.545467
2135,-1.7850457,-3.0702906,-7.6773715
2136,-1.7730815,-3.1540394,-7.6941214
2137,-1.7300107,-3.1420753,-7.6773715
2138,-1.4880366,-3.1396823,-7.7682986
2139,-1.4449657,-3.1253254,-7.832905
2140,-1.4641083,-3.2093735,-8.077271
2141,-1.5239289,-3.321836,-8.194819
2142,-1.6965113,-3.3601213,-8.23789
2143,-1.8738792,-3.2859437,-8.295318
2144,-2.0365913,-3.2309089,-8.326425
2145,-2.3407788,-3.0200412,-8.324032
2146,-2.4272194,-2.8019953,-8.369495
2147,-2.5636103,-2.7062824,-8.395817
2148,-2.7338,-2.6198416,-8.393424
2149,-3.0595229,-2.631806,-8.503793
2150,-3.1914272,-2.6751757,-8.417352
2151,-3.19382,-2.6512475,-8.379066
2152,-3.2081769,-2.8187451,-8.065308
2153,-3.1866415,-3.0439694,-8.003095
2154,-3.0786655,-3.10379,-7.8664045
2155,-2.865405,-3.1827533,-8.036594
2156,-2.650051,-3.2333016,-8.288139
2157,-2.2785654,-3.226123,-8.563613
2158,-2.0078773,-3.1827533,-8.810373
2159,-1.7108682,-3.0439694,-9.236594
2160,-1.5816557,-2.8091738,-9.617652
2161,-1.5526428,-2.478665,-9.909875
2162,-1.5382859,-2.274976,-10.092029
2163,-1.6534405,-2.0545373,-10.276276
2164,-1.8233309,-1.8822541,-10.278668
2165,-2.0437696,-1.9061823,-10.094421
2166,-2.3383858,-1.8678972,-9.967302
2167,-2.6306095,-1.8317057,-9.98166
2168,-2.7601209,-1.8101703,-9.919446
2169,-3.1600213,-1.7814565,-9.845269
2170,-3.3373895,-1.7718852,-9.773185
2171,-3.5697923,-1.7240287,-9.850055
2172,-3.7208393,-1.599602,-9.900304
2173,-3.8237305,-1.556232,-10.003195
2174,-3.8739798,-1.4844474,-10.202099
2175,-4.008277,-1.4270196,-10.28824
2176,-4.080062,-1.3767704,-10.369895
2177,-4.269394,-1.1347961,-10.546964
2178,-4.295715,-0.98853487,-10.590334
2179,-4.3674994,-0.7752745,-10.470394
2180,-4.3674994,-0.66999036,-10.377073
2181,-4.369892,-0.6436693,-10.235598
2182,-4.278965,-0.6891329,-10.19492
2183,-4.211667,-0.919143,-10.199706
2184,-4.025027,-1.1922239,-10.312168
2185,-3.7328033,-1.2544373,-10.381859
2186,-3.4692938,-1.2209377,-10.396216
2187,-3.0882368,-1.2376875,-10.451251
2188,-2.568396,-1.2544373,-10.776974
2189,-2.3841486,-1.3384851,-10.928021
2190,-2.1083758,-1.3360924,-11.215459
2191,-1.9600209,-1.3648062,-11.538789
2192,-1.8786649,-1.2855439,-11.857333
2193,-1.864308,-1.2424731,-11.977274
2194,-1.9193429,-1.16351,-12.1663065
2195,-2.216352,-1.1419746,-12.25514
2196,-2.6210382,-1.0917253,-12.295818
2197,-3.140879,-0.9909277,-12.245569
2198,-3.6726837,-0.959821,-12.003594
2199,-4.194917,-1.0462617,-11.591431
2200,-4.336393,-1.0797613,-11.507682
2201,-4.9639106,-1.2951152,-10.949556
2202,-5.124529,-1.3600205,-10.736296
2203,-5.11735,-1.2975081,-10.5685
2204,-5.1029935,-1.2352947,-10.451251
2205,-4.7195435,-0.9167502,-10.381859
2206,-4.2188454,-0.72502524,-10.365109
2207,-3.926622,-0.6149554,-10.554143
2208,-3.3684962,-0.53599226,-10.803295
2209,-2.8319056,-0.5479564,-10.987842
2210,-2.5588248,-0.65084773,-11.045269
2211,-2.1158533,-0.76331043,-11.134103
2212,-1.9384855,-0.8497511,-11.1987095
2213,-1.576571,-0.8593224,-11.083554
2214,-1.2939188,-0.74416786,-10.956735
2215,-1.3229318,-0.71306115,-10.776974
2216,-1.7515461,-0.76570326,-10.30499
2217,-2.1565313,-0.93349993,-10.092029
2218,-2.6018956,-1.1228321,-9.878768
2219,-3.0595229,-1.2687942,-9.761221
2220,-3.3110683,-1.2592229,-9.713365
2221,-3.5937204,-1.3046865,-9.545867
2222,-3.6774693,-1.2616158,-9.346964
2223,-3.739982,-1.2975081,-9.002098
2224,-3.588935,-1.4700904,-8.894122
2225,-3.4259238,-1.6498512,-8.961121
2226,-3.1217363,-1.9205393,-9.183952
2227,-2.9446673,-2.1984057,-9.37807
2228,-2.8677979,-2.3371894,-9.47139
2229,-2.7409782,-2.315654,-9.617652
2230,-2.6162524,-2.0712872,-9.758828
2231,-2.4607189,-1.8511474,-9.830912
2232,-2.4774687,-1.6642082,-9.857233
2233,-2.4726832,-1.4916258,-9.749257
2234,-2.3889344,-1.3911272,-9.732507
2235,-2.2402802,-1.355235,-9.727721
2236,-2.1780667,-1.462912,-9.691829
2237,-2.2091734,-1.8487546,-9.562616
2238,-2.3383858,-2.167299,-9.603294
2239,-2.542075,-2.3060827,-9.65833
2240,-2.7122645,-2.3300111,-9.6631155
2241,-2.9446673,-2.263012,-9.584152
2242,-3.2823544,-2.044966,-9.1719885
2243,-3.5482569,-1.9325033,-8.834301
2244,-3.6870406,-1.8631115,-8.587542
2245,-3.9457645,-1.8870398,-8.312068
2246,-4.1183467,-2.0952153,-8.1012
2247,-4.281358,-2.2438695,-7.9169526
2248,-4.2909293,-2.2941186,-7.8257265
2249,-3.9146578,-2.0784655,-8.019844
2250,-3.3852458,-1.8125632,-8.206783
2251,-2.772085,-1.5203397,-8.410173
2252,-2.2522442,-1.3121641,-8.678469
2253,-1.727618,-1.2400804,-9.061918
2254,-1.3133606,-1.2999009,-9.47139
2255,-0.87966144,-1.5442679,-9.900304
2256,-0.6448657,-1.9229321,-10.261919
2257,-0.5419743,-2.5337,-10.403395
2258,-0.73340017,-3.077469,-10.278668
2259,-1.0953146,-3.5039897,-9.909875
2260,-1.5646069,-3.6068811,-9.545867
2261,-1.9121644,-3.5901313,-9.246465
2262,-2.1565313,-3.551846,-9.13131
2263,-2.7361927,-3.3026934,-9.011669
2264,-3.042773,-2.9195428,-9.047562
2265,-3.2033913,-2.5289145,-9.143274
2266,-3.464508,-2.2007985,-9.195916
2267,-3.4597225,-2.155335,-9.14806
2268,-3.5410783,-2.2869403,-9.287143
2269,-3.5434713,-2.4858437,-9.334999
2270,-3.478865,-2.6485555,-9.291928
2271,-3.0355947,-3.1420753,-8.961121
2272,-2.8965118,-3.3122647,-8.88455
2273,-2.4726832,-3.3433714,-8.896515
2274,-1.9648064,-3.2213376,-9.08824
2275,-1.7180467,-3.1683962,-9.238987
2276,-1.428216,-3.1133614,-9.380463
2277,-1.1120644,-3.1157541,-9.497711
2278,-0.9610174,-3.1926236,-9.538689
2279,-0.8533404,-3.226123,-9.517153
2280,-0.87966144,-3.391228,-9.409177
2281,-1.1527423,-3.6547375,-8.973084
2282,-1.3779668,-3.8201413,-8.736196
2283,-1.6462619,-3.9254255,-8.491829
2284,-1.7467605,-4.0381875,-8.343174
2285,-1.9791634,-3.8751762,-8.182856
2286,-2.1589243,-3.554239,-8.178069
2287,-2.2378874,-3.242873,-8.077271
2288,-2.335993,-2.804388,-7.9480596
2289,-2.458326,-2.385345,-7.9408813
2290,-2.5851457,-2.3252254,-7.9217386
2291,-2.6186452,-2.2989044,-7.986345
2292,-2.6090739,-2.2869403,-8.017451
2293,-2.5636103,-2.4930222,-8.00788
2294,-2.5301108,-2.6991038,-7.919346
2295,-2.5301108,-2.6991038,-7.919346
2296,-2.1158533,-2.955435,-7.9097743
2297,-1.9648064,-3.1229327,-7.8759756
2298,-1.8595223,-3.3840494,-7.861619
2299,-1.7994026,-3.5566318,-7.816155
2300,-1.6845472,-3.67388,-7.797013
2301,-1.5741782,-3.7914274,-7.832905
2302,-1.4090735,-3.92064,-7.756335
2303,-1.250848,-3.932604,-7.8424764
2304,-1.1670992,-3.918247,-7.9648094
2305,-1.0136595,-3.81057,-8.1179495
2306,-0.8676973,-3.7627137,-8.178069
2307,-0.7791629,-3.716951,-8.233105
2308,-0.7286145,-3.743571,-8.407781
2309,-0.73340017,-3.7220356,-8.678469
2310,-0.79830545,-3.8368912,-8.772088
2311,-1.0857433,-3.9302113,-8.9108715
2312,-1.1647065,-3.906283,-8.915657
2313,-1.6893328,-3.8847475,-8.874979
2314,-1.9504496,-3.9445682,-8.898908
2315,-2.2139592,-3.92064,-8.956335
2316,-2.3985057,-3.9373896,-8.968299
2317,-2.6811578,-4.0740795,-8.886943
2318,-2.841477,-4.112365,-8.786445
2319,-2.9108686,-4.059723,-8.76491
2320,-3.0116663,-4.0501513,-8.712267
2321,-3.071487,-3.9756749,-8.784052
2322,-3.0762727,-3.9038901,-8.745767
2323,-3.0355947,-3.6810586,-8.760123
2324,-2.8701909,-3.5829527,-8.755338
2325,-2.7026932,-3.5039897,-8.817552
2326,-2.5253253,-3.391228,-8.925228
2327,-2.1804597,-3.3481572,-8.894122
2328,-1.9552352,-3.3433714,-8.860622
2329,-1.7635103,-3.3409786,-8.827123
2330,-1.6079768,-3.4824543,-8.815159
2331,-1.4473586,-3.6116667,-8.855837
2332,-1.4306089,-3.7938204,-8.908479
2333,-1.483251,-3.8991046,-8.889337
2334,-1.6366907,-3.932604,-8.980562
2335,-1.8041883,-3.9541395,-9.004491
2336,-2.0557337,-3.8081772,-8.985348
2337,-2.065305,-3.8321054,-8.889337
2338,-2.3048863,-3.6954155,-8.73141
2339,-2.5301108,-3.513561,-8.736196
2340,-2.6162524,-3.4223347,-8.707183
2341,-2.71705,-3.3457642,-8.668898
2342,-2.7481568,-3.3266218,-8.637791
2343,-2.8773692,-3.309872,-8.601898
2344,-2.8582265,-3.4390843,-8.438888
2345,-2.8366911,-3.5063825,-8.36471
2346,-2.6955147,-3.56381,-8.245069
2347,-2.5803602,-3.5949168,-8.079665
2348,-2.4918256,-3.647559,-7.995916
2349,-2.3168504,-3.6308093,-7.873583
2350,-2.1924238,-3.6140594,-7.804191
2351,-2.0988045,-3.5853457,-7.765906
2352,-1.9504496,-3.5350964,-7.830512
2353,-1.8065811,-3.3840494,-7.8831544
2354,-1.6797615,-3.226123,-7.9313097
2355,-1.6199409,-3.2069805,-7.926524
2356,-1.5023935,-3.1683962,-8.005487
2357,-1.4330016,-3.1827533,-8.060522
2358,-1.4401802,-3.2309089,-8.211569
2359,-1.4617156,-3.2237303,-8.295318
2360,-1.6079768,-3.2715867,-8.295318
2361,-1.8400806,-3.2763724,-8.151449
2362,-2.0030916,-3.2524443,-8.003095
2363,-2.1182463,-3.242873,-7.7156568
2364,-2.2905295,-3.1755748,-7.5382886
2365,-2.3670998,-3.1636107,-7.43779
2366,-2.364707,-3.1396823,-7.4736824
2367,-2.420041,-3.12054,-7.4832535
2368,-2.4296124,-3.0846474,-7.5717883
2369,-2.446362,-3.1061828,-7.6917286
2370,-2.4655046,-3.10379,-7.8352976
2371,-2.4535406,-3.1013973,-7.9648094
2372,-2.417648,-3.0583265,-7.943274
2373,-2.2402802,-2.9168508,-8.04138
2374,-2.187638,-2.861816,-8.0677
2375,-1.931307,-2.8953154,-8.113164
2376,-1.8810577,-2.984149,-8.197212
2377,-1.8547367,-2.969792,-8.290532
2378,-1.7994026,-3.0439694,-8.4679
2379,-1.7395821,-2.9889345,-8.546864
2380,-1.8161523,-2.9626136,-8.56122
2381,-1.9265213,-2.821138,-8.611469
2382,-1.8954146,-2.7062824,-8.647362
2383,-1.9408783,-2.6126633,-8.685647
2384,-1.9935204,-2.4930222,-8.738588
2385,-2.0341983,-2.4355943,-8.827123
2386,-2.1445673,-2.5193431,-8.903693
2387,-2.14696,-2.507379,-8.95155
2388,-2.434398,-2.7349963,-8.906086
2389,-2.650051,-2.7493532,-9.057133
2390,-2.7026932,-2.7589245,-8.9348
2391,-2.7433712,-2.5719852,-8.906086
2392,-2.6979074,-2.4643083,-8.843872
2393,-2.652444,-2.385345,-8.863015
2394,-2.652444,-2.385345,-8.863015
2395,-2.4774687,-2.3925235,-9.0595255
2396,-2.4224339,-2.387738,-9.047562
2397,-2.0748763,-2.5169504,-9.480962
2398,-1.8954146,-2.4355943,-9.83809
2399,-1.8281165,-2.2941186,-9.991231
2400,-1.8113668,-2.1242282,-10.221241
2401,-1.6749759,-1.7910278,-10.384252
2402,-1.7300107,-1.5083755,-10.472787
2403,-1.8523438,-1.2640085,-10.525429
2404,-2.0629122,-1.0268201,-10.5685
2405,-2.309672,-0.98853487,-10.535
2406,-2.6090739,-1.0534402,-10.377073
2407,-2.9590242,-1.230509,-10.33161
2408,-3.260819,-1.4246268,-10.300204
2409,-3.4836507,-1.5876378,-10.226027
2410,-3.62722,-1.6809579,-10.092029
2411,-3.6559339,-1.7240287,-10.063314
2412,-3.6320057,-1.7024933,-10.094421
2413,-3.4860435,-1.747957,-10.379466
2414,-3.4163525,-1.7407784,-10.707582
2415,-3.3924243,-1.7718852,-10.812866
2416,-3.3349965,-1.7455641,-11.134103
2417,-3.3589249,-1.7934206,-11.3016
2418,-3.3182468,-1.82692,-11.423934
2419,-3.315854,-1.8559331,-11.330315
2420,-3.3349965,-1.707279,-11.313564
2421,-3.3589249,-1.5586249,-11.325529
2422,-3.3445678,-1.2544373,-11.222637
2423,-3.3206396,-0.9526425,-11.205888
2424,-3.3613176,-0.79710907,-11.234601
2425,-3.3445678,-0.6628119,-11.174781
2426,-3.3732817,-0.66999036,-11.119746
2427,-3.2967114,-0.7082755,-10.971092
2428,-3.1169505,-0.94307125,-10.786546
2429,-3.0690942,-1.1228321,-10.79851
2430,-3.030809,-1.3624134,-10.882557
2431,-2.9662027,-1.5442679,-10.928021
2432,-2.906083,-1.5107684,-10.899307
2433,-2.7266214,-1.3480564,-11.107483
2434,-2.705086,-1.2089736,-11.174781
2435,-2.6186452,-0.89042914,-11.330315
2436,-2.6739793,-0.76570326,-11.416755
2437,-2.7696922,-0.5766702,-11.562717
2438,-2.9156544,-0.4232305,-11.5722885
2439,-2.9853454,-0.27008986,-11.541182
2440,-3.2297122,-0.20518455,-11.347064
2441,-3.3780673,-0.26291138,-10.971092
2442,-3.5578282,-0.45912284,-10.525429
2443,-3.7208393,-0.8330014,-10.080065
2444,-3.739982,-1.0411769,-9.924232
2445,-3.6631124,-1.2687942,-9.627223
2446,-3.5243287,-1.5634105,-9.358928
2447,-3.3278182,-1.82692,-9.277572
2448,-3.0092735,-1.9396819,-9.404391
2449,-2.7026932,-2.0401804,-9.660723
2450,-2.4224339,-2.1218355,-9.859626
2451,-2.187638,-2.0784655,-9.984053
2452,-1.9767706,-1.9588244,-9.952946
2453,-1.957628,-1.707279,-9.840483
2454,-2.0365913,-1.4772689,-9.646365
2455,-2.1230319,-1.3313067,-9.543474
2456,-2.2354946,-1.355235,-9.452248
2457,-2.3048863,-1.448555,-9.519546
2458,-2.3694925,-1.5729818,-9.545867
2459,-2.4511478,-1.6019948,-9.603294
2460,-2.4798615,-1.5634105,-9.651151
2461,-2.582753,-1.6235301,-9.610473
2462,-2.6282165,-1.678565,-9.603294
2463,-2.8725836,-1.8726828,-9.48814
2464,-2.9805596,-1.9157536,-9.457033
2465,-3.1552358,-1.9301106,-9.480962
2466,-3.2297122,-1.8436699,-9.404391
2467,-3.3206396,-1.8678972,-9.195916
2468,-3.3637104,-1.9325033,-9.064311
2469,-3.330211,-2.0545373,-8.946764
2470,-3.2775688,-2.0353947,-9.090632
2471,-3.1145577,-1.9468603,-9.25125
2472,-2.8893332,-1.8197416,-9.275179
2473,-2.6883361,-1.7431713,-9.198309
2474,-2.475076,-1.8487546,-9.205488
2475,-2.3024936,-2.0497518,-9.217452
2476,-2.1852453,-2.3901308,-9.265608
2477,-2.1131616,-2.5049863,-9.219845
2478,-2.0365913,-2.521736,-9.136096
2479,-1.9408783,-2.521736,-9.066704
2480,-1.7994026,-2.483451,-9.064311
2481,-1.7419748,-2.2438695,-9.198309
2482,-1.6031911,-2.0688944,-9.2126665
2483,-1.5311074,-1.8631115,-9.260822
2484,-1.4665012,-1.7670995,-9.423533
2485,-1.5358931,-1.7934206,-9.421141
2486,-1.5430715,-2.1601207,-9.526724
2487,-1.7060826,-2.4571297,-9.60808
2488,-1.9480567,-2.6871397,-9.610473
2489,-2.161317,-2.7445676,-9.5048895
2490,-2.39372,-2.7110682,-9.303893
2491,-2.5588248,-2.7062824,-9.057133
2492,-2.693122,-2.8666015,-8.925228
2493,-2.7338,-3.0822546,-8.913264
2494,-2.7768707,-3.460919,-8.908479
2495,-2.7936203,-3.7627137,-9.061918
2496,-2.8462625,-3.8967116,-9.081061
2497,-2.8199415,-3.9110687,-9.112167
2498,-2.8103702,-3.8129628,-9.162417
2499,-2.6883361,-3.5997026,-9.311071
2500,-2.6883361,-3.5997026,-9.311071
