,ax,ay,az
501,-6.937989,0.4749753,-9.162417
502,-7.0169525,0.76719874,-9.332606
503,-7.1007013,0.89431745,-9.354142
504,-7.2613196,1.0211371,-9.299107
505,-7.4793653,1.0642079,-9.291928
506,-7.771589,1.0666007,-9.002098
507,-8.056634,1.0522437,-8.776874
508,-8.142776,1.035494,-8.601898
509,-8.293822,0.89431745,-8.094022
510,-8.200203,0.81266236,-7.9767733
511,-8.152347,0.76959157,-7.9097743
512,-8.006385,0.77677006,-8.137093
513,-7.98455,0.7408777,-8.395817
514,-7.8481593,0.8321041,-8.752945
515,-7.711469,0.817448,-9.028419
516,-7.687541,0.79112697,-9.090632
517,-7.6803627,0.6092725,-8.985348
518,-7.5272217,0.2832504,-8.805588
519,-7.3953176,0.04875376,-8.625827
520,-7.3642106,-0.15732808,-8.455936
521,-7.3402824,-0.22432712,-8.206783
522,-7.301997,-0.13100705,-8.113164
523,-7.199106,-0.061615184,-8.038987
524,-7.088737,0.058325052,-7.91456
525,-7.0935225,0.13489537,-7.9337025
526,-7.0935225,0.12771691,-7.792227
527,-7.112665,0.12771691,-7.6462646
528,-7.07438,-0.023330022,-7.665407
529,-7.0265236,-0.10468599,-7.706085
530,-6.8922267,-0.20279172,-7.751549
531,-6.710372,-0.26291138,-7.780263
532,-6.4181485,-0.35144582,-7.88794
533,-6.27428,-0.39451665,-7.919346
534,-6.0729837,-0.4854439,-8.060522
535,-6.0107703,-0.57427746,-8.084451
536,-6.1040907,-0.65324056,-8.201998
537,-6.2934227,-0.7106683,-8.132307
538,-6.466005,-0.6125626,-8.050951
539,-6.7725854,-0.40887356,-7.9169526
540,-6.9281187,-0.18125631,-7.8400836
541,-7.0025954,-0.05682954,-7.8257265
542,-7.048059,0.1683949,-7.5622168
543,-7.0695944,0.13489537,-7.4856467
544,-7.0935225,0.02213361,-7.3250284
545,-7.0959153,-0.066400826,-7.3322067
546,-7.115058,-0.23150559,-7.2341013
547,-7.0265236,-0.33708888,-7.2006016
548,-6.8874407,-0.4854439,-7.246065
549,-6.7343,-0.6628119,-7.2006016
550,-6.6649084,-0.8234301,-7.344171
551,-6.518647,-0.98853487,-7.353742
552,-6.41097,-1.1371889,-7.2963142
553,-6.343672,-1.3289139,-7.2676005
554,-6.302994,-1.4246268,-7.147959
555,-6.247959,-1.5610176,-7.0615187
556,-6.2407804,-1.4916258,-7.1336026
557,-6.183353,-1.50359,-7.2412796
558,-6.176174,-1.6211374,-7.315457
559,-6.142675,-1.7670995,-7.3779697
560,-6.0897336,-1.9013968,-7.5311103
561,-6.0418773,-1.9277177,-7.6678
562,-6.0346985,-1.9707886,-7.7012997
563,-6.0227346,-1.9707886,-7.6749787
564,-6.1232333,-1.9348962,-7.5119677
565,-6.2790656,-1.9037895,-7.3106713
566,-6.5090756,-1.8870398,-7.1527452
567,-6.6406813,-1.8607187,-7.008877
568,-6.8252273,-1.7766708,-6.7334027
569,-6.983453,-1.7790636,-6.4627147
570,-7.012167,-1.7694924,-6.146563
571,-7.0145597,-1.7670995,-5.7152567
572,-6.9523463,-1.774278,-5.3560343
573,-6.8515487,-1.7623138,-4.881657
574,-6.667301,-1.7670995,-4.5798626
575,-6.2934227,-1.5681962,-4.29721
576,-5.8334026,-1.4006985,-4.0672
577,-5.246563,-1.1539388,-4.074379
578,-5.110172,-1.0869397,-4.0360937
579,-4.3555355,-0.9382856,-3.9882371
580,-3.600899,-0.86171526,-3.9212382
581,-3.289533,-0.96460664,-3.935595
582,-2.9036903,-1.082154,-4.0360937
583,-2.6548367,-1.3046865,-4.2828536
584,-2.556432,-1.4054842,-4.4072804
585,-2.2642083,-1.7766708,-4.8361936
586,-2.134996,-2.0401804,-5.2169514
587,-2.1565313,-2.344368,-5.7607207
588,-2.2115662,-2.4906292,-6.0460644
589,-2.4248266,-2.8522446,-6.6735826
590,-2.894119,-3.1564322,-7.0351977
591,-3.6583266,-3.3314073,-6.9825554
592,-4.19731,-3.2763724,-6.8892355
593,-4.8418765,-3.10379,-6.719046
594,-5.543572,-2.833102,-6.474679
595,-6.1040907,-2.4906292,-6.242276
596,-6.5018973,-2.167299,-5.93091
597,-7.004988,-1.5634105,-5.521438
598,-7.194021,-1.16351,-5.2145586
599,-7.194021,-1.16351,-5.2145586
600,-7.41446,-0.16211374,-4.6731825
601,-7.498508,-0.054436713,-4.668397
602,-7.606185,-0.2533401,-4.953442
603,-7.4623165,-0.6652047,-5.676972
604,-7.292426,-1.1970096,-6.489036
605,-7.0097737,-1.6354942,-7.085447
606,-6.6768723,-1.8918254,-7.5981092
607,-6.3628144,-1.9947168,-8.070093
608,-6.005985,-2.1337996,-8.458329
609,-5.718547,-2.2845473,-8.618649
610,-5.6036916,-2.3204398,-8.7266245
611,-5.411967,-2.2558336,-8.7673025
612,-5.4789658,-2.129014,-8.633005
613,-5.6730833,-1.7838492,-8.414959
614,-5.977271,-1.4796617,-8.34796
615,-6.2718873,-1.1754742,-8.359924
616,-6.341279,-0.9311071,-8.247461
617,-6.4875402,-0.70348984,-8.082058
618,-6.5090756,-0.5886344,-7.847262
619,-6.489933,-0.48305106,-7.816155
620,-6.4827547,-0.46869412,-7.8233337
621,-6.4492555,-0.32273194,-8.000702
622,-6.329315,-0.016151553,-8.441579
623,-6.2623158,0.09661021,-8.793623
624,-6.276673,0.067896344,-9.004491
625,-6.3460646,0.03678965,-9.179167
626,-6.466005,-0.14057833,-9.11456
627,-6.6358953,-0.25094727,-8.908479
628,-6.707979,-0.3394817,-8.733803
629,-6.753443,-0.4447659,-8.668898
630,-6.8228345,-0.47826543,-8.542078
631,-6.8228345,-0.41365921,-8.52772
632,-6.818049,-0.20518455,-8.65454
633,-6.7582283,-0.12861422,-8.67129
634,-6.760621,0.28085756,-8.922835
635,-6.741479,0.47736812,-9.02124
636,-6.858727,0.71694946,-9.047562
637,-6.9185476,0.8150552,-9.11456
638,-6.913762,0.846461,-9.126525
639,-6.899405,0.7935198,-8.975478
640,-6.8802624,0.56380886,-8.781659
641,-6.9305115,0.43908295,-8.690433
642,-7.0002027,0.08703893,-8.587542
643,-7.0169525,-0.044865426,-8.618649
644,-6.9882383,-0.023330022,-8.690433
645,-6.995417,0.1061815,-8.906086
646,-7.031309,0.3481557,-9.157631
647,-7.1007013,0.4031906,-9.16481
648,-7.1509504,0.38644084,-9.162417
649,-7.1629148,0.4103691,-9.138489
650,-7.1413794,0.4103691,-9.0595255
651,-7.0432734,0.39840496,-8.937193
652,-6.7630143,0.46779683,-8.666505
653,-6.561718,0.4869394,-8.642576
654,-6.2958155,0.5276174,-8.788837
655,-6.058627,0.4127619,-9.138489
656,-5.9748783,0.25692934,-9.320642
657,-5.857331,0.12053844,-9.543474
658,-5.639584,0.03918247,-10.113564
659,-5.58425,0.077467635,-10.369895
660,-5.5507503,0.19471595,-10.633405
661,-5.5965133,0.2955136,-10.719546
662,-5.682655,0.32183465,-10.724332
663,-5.905486,0.3385844,-10.645369
664,-6.3125653,0.24735804,-10.401002
665,-6.693622,0.29790643,-10.043873
666,-6.957132,0.37447673,-9.665508
667,-7.199106,0.44147578,-9.275179
668,-7.383353,0.5347959,-8.937193
669,-7.4647093,0.5877371,-8.683254
670,-7.5200434,0.61405814,-8.340781
671,-7.496115,0.4869394,-8.070093
672,-7.4455667,0.46301118,-8.043773
673,-7.201499,0.10139586,-8.055737
674,-7.112665,-0.011365907,-8.053344
675,-6.7701926,-0.2940181,-8.170592
676,-6.4923263,-0.41365921,-8.216354
677,-6.216852,-0.4639085,-8.240283
678,-5.787939,-0.46869412,-8.412566
679,-5.6443696,-0.4639085,-8.499007
680,-5.3856454,-0.30119655,-8.67129
681,-5.32074,-0.21475583,-8.786445
682,-5.306383,-0.116650105,-8.882157
683,-5.2944193,-0.0424726,-8.941978
684,-5.378467,0.1061815,-8.822337
685,-5.4023952,0.12053844,-8.76491
686,-5.553143,-0.01375873,-8.659326
687,-5.749654,-0.14297116,-8.479864
688,-5.910272,-0.2844468,-8.257032
689,-6.0011992,-0.3179463,-8.122736
690,-6.070591,-0.39212382,-8.079665
691,-6.1040907,-0.4758726,-8.027022
692,-6.166603,-0.5814559,-8.029415
693,-6.1378894,-0.66041905,-8.1275215
694,-6.111269,-0.7704889,-8.259425
695,-6.1331034,-0.8330014,-8.283354
696,-6.1474605,-0.8138588,-8.218747
697,-6.111269,-0.65324056,-8.221141
698,-6.1331034,-0.5455636,-8.110771
699,-6.1857457,-0.4854439,-7.995916
700,-6.2431736,-0.526421,-7.8592257
701,-6.259923,-0.61734825,-7.830512
702,-6.2623158,-0.67477596,-7.9576306
703,-6.178567,-0.7728817,-7.9719877
704,-6.058627,-0.8449655,-8.019844
705,-5.895915,-1.0052847,-8.017451
706,-5.771189,-1.1228321,-8.0677
707,-5.708976,-1.1826526,-8.113164
708,-5.639584,-1.314557,-8.139485
709,-5.608477,-1.4389837,-8.04138
710,-5.536393,-1.5059828,-7.928917
711,-5.459823,-1.5203397,-7.9073815
712,-5.36411,-1.5203397,-7.8352976
713,-5.2489557,-1.4653047,-7.7300134
714,-5.229813,-1.556232,-7.600502
715,-5.265705,-1.5275182,-7.6340017
716,-5.313562,-1.5442679,-7.830512
717,-5.3473606,-1.5681962,-7.85444
718,-5.404788,-1.6187445,-7.897511
719,-5.445466,-1.7886349,-7.8352976
720,-5.4670014,-1.8918254,-7.7874413
721,-5.502894,-1.9851454,-7.62443
722,-5.5675,-2.0952153,-7.507182
723,-5.639584,-2.2103698,-7.3082786
724,-5.6946187,-2.2941186,-7.167102
725,-5.723333,-2.289333,-7.066304
726,-5.8046885,-2.2199411,-6.975377
727,-5.9676995,-1.9253249,-6.858129
728,-6.0155563,-1.7096717,-6.7812595
729,-6.053841,-1.4318053,-6.570691
730,-6.0394845,-1.2089736,-6.27099
731,-5.960521,-1.1371889,-5.8974104
732,-5.8022957,-1.0654043,-5.2627144
733,-5.663512,-1.1012967,-4.79073
734,-5.519644,-1.1587243,-4.5559344
735,-5.0548377,-1.2687942,-4.1557345
736,-4.5951166,-1.3624134,-4.199105
737,-4.0776687,-1.4605191,-4.469793
738,-3.8117664,-1.4581263,-4.584648
739,-3.0499516,-1.4868401,-5.0901318
740,-2.7026932,-1.585245,-5.363213
741,-2.242673,-1.678565,-5.784948
742,-1.9815563,-1.8077775,-6.072386
743,-1.8690935,-2.0018952,-6.323931
744,-1.931307,-2.2295125,-6.6759753
745,-2.1924238,-2.4427729,-6.9131637
746,-2.6835506,-2.631806,-6.8916283
747,-3.0619156,-2.7230322,-6.8365936
748,-3.9146578,-2.8235307,-6.6831536
749,-4.3986063,-2.8570302,-6.6017976
750,-5.1006007,-2.8426733,-6.460322
751,-5.790332,-2.658426,-6.3574305
752,-6.2958155,-2.4044876,-6.3071814
753,-6.454041,-2.047359,-6.242276
754,-6.741479,-1.5466608,-6.220741
755,-7.031309,-0.9550353,-6.1178493
756,-7.2756763,-0.72741807,-6.0050874
757,-7.318747,-0.6987042,-5.8686967
758,-7.488937,-0.81864446,-5.7463636
759,-7.481758,-1.3360924,-5.8543396
760,-7.3642106,-1.6235301,-6.0460644
761,-7.0983086,-1.8364913,-6.302396
762,-6.736693,-1.9157536,-6.7429743
763,-6.4492555,-1.8750757,-7.030412
764,-5.9150577,-1.7431713,-7.4234333
765,-5.392824,-1.6043876,-7.8233337
766,-4.88734,-1.4940187,-8.153842
767,-4.4799623,-1.5179468,-8.5014
768,-4.2499523,-1.707279,-8.690433
769,-4.254738,-1.8077775,-8.843872
770,-4.319643,-1.951646,-9.057133
771,-4.417749,-1.9301106,-9.238987
772,-4.788935,-1.6881363,-9.315857
773,-5.172385,-1.3046865,-9.140882
774,-5.543572,-0.9502497,-8.965906
775,-5.7257257,-0.74416786,-8.846265
776,-6.1881385,-0.33230326,-8.499007
777,-6.355636,-0.09750752,-8.235497
778,-6.7319074,0.03918247,-7.62443
779,-7.09113,-0.05682954,-7.1503525
780,-7.278069,-0.27008986,-6.9849486
781,-7.3666034,-0.56470615,-7.068697
782,-7.1820574,-0.86889374,-7.670193
783,-7.0145597,-0.89282197,-8.1012
784,-6.6358953,-0.7827521,-8.549256
785,-6.111269,-0.41605204,-8.997313
786,-5.6850476,-0.13100705,-9.22463
787,-5.2441697,0.16600206,-9.2895355
788,-5.122136,0.17078772,-9.234201
789,-5.306383,-0.01375873,-9.045169
790,-5.5459647,-0.20039889,-9.016455
791,-5.857331,-0.43998027,-8.865408
792,-6.207281,-0.61734825,-8.738588
793,-6.585646,-0.7923234,-8.721839
794,-6.901798,-0.86889374,-8.65454
795,-7.1772714,-0.8234301,-8.625827
796,-7.237391,-0.701097,-8.683254
797,-7.3283186,-0.19322042,-8.729017
798,-7.3115687,0.36490545,-8.846265
799,-7.282855,0.62841505,-8.843872
800,-7.1581287,0.8895318,-8.755338
801,-7.115058,0.95653087,-8.59472
802,-7.0504518,0.8775677,-8.482257
803,-7.024131,0.73848486,-8.395817
804,-6.8659053,0.56111693,-8.532506
805,-6.4731836,0.30508488,-8.9108715
806,-6.358029,0.27367908,-9.169596
807,-5.9007006,0.30508488,-9.629616
808,-5.5866427,0.40079778,-9.933804
809,-5.4430733,0.48933223,-10.087243
810,-5.3473606,0.64037913,-10.080065
811,-5.4167523,0.6619146,-9.895518
812,-5.6706905,0.60687965,-9.77797
813,-5.823831,0.50368917,-9.653543
814,-6.207281,0.31465617,-9.390035
815,-6.355636,0.357727,-9.517153
816,-6.348458,0.3481557,-9.533903
817,-6.300601,0.39361933,-9.77797
818,-6.300601,0.49651068,-9.917053
819,-6.2958155,0.6092725,-9.940982
820,-6.3628144,0.7217351,-9.976874
821,-6.4205413,0.8321041,-10.000802
822,-6.5162544,0.9732806,-9.984053
823,-6.6215386,1.0402796,-9.969695
824,-6.7678,1.1291132,-9.890733
825,-6.808478,1.1386845,-9.773185
826,-6.8706913,0.97567344,-9.567402
827,-6.925726,0.8632108,-9.258429
828,-6.937989,0.7480562,-9.061918
829,-6.8539414,0.54675996,-8.853444
830,-6.834799,0.36251262,-8.793623
831,-6.6888366,0.15643078,-8.738588
832,-6.602396,-0.028115666,-8.7266245
833,-6.5521464,-0.09750752,-8.690433
834,-6.4588265,-0.08315059,-8.721839
835,-6.41097,0.02213361,-8.7266245
836,-6.326922,0.063110694,-8.472686
837,-6.2934227,0.11335997,-8.335996
838,-6.2934227,0.17796618,-8.213962
839,-6.3388863,0.15403795,-8.058129
840,-6.3125653,0.19950159,-7.885547
841,-6.2814584,0.180359,-7.9648094
842,-6.168996,0.17318054,-8.120343
843,-5.960521,0.25214368,-8.386245
844,-5.8477592,0.20428723,-8.496614
845,-5.8429737,0.1683949,-8.479864
846,-5.8453665,0.077467635,-8.443972
847,-5.910272,-0.028115666,-8.285747
848,-5.9581285,-0.071186475,-8.223534
849,-6.149853,-0.12622139,-8.031808
850,-6.216852,-0.20279172,-7.9504523
851,-6.216852,-0.28205398,-7.912167
852,-6.207281,-0.37776688,-7.88794
853,-6.159425,-0.45194438,-7.880761
854,-6.0227346,-0.6053841,-7.9767733
855,-5.9748783,-0.60777694,-8.010273
856,-5.895915,-0.78035927,-8.098807
857,-5.881558,-0.84017986,-8.1179495
858,-5.879165,-0.83060855,-8.178069
859,-5.8767724,-0.8234301,-8.141878
860,-5.9246287,-0.74895346,-8.103593
861,-6.0634127,-0.74177504,-8.022237
862,-6.1474605,-0.7609176,-7.91456
863,-6.209674,-0.8138588,-7.813762
864,-6.3747787,-0.9311071,-7.6124663
865,-6.4923263,-1.0339985,-7.461718
866,-6.5425754,-1.1132607,-7.397112
867,-6.602396,-1.1012967,-7.4186473
868,-6.5641108,-1.0869397,-7.4976106
869,-6.3915286,-1.0582259,-7.4976106
870,-6.259923,-1.1539388,-7.5406814
871,-6.101698,-1.2711871,-7.6606216
872,-6.046663,-1.3480564,-7.7156568
873,-5.823831,-1.4916258,-7.952845
874,-5.7376895,-1.5634105,-7.9241314
875,-5.7017975,-1.6857436,-7.952845
876,-5.6994042,-1.7264216,-7.952845
877,-5.783153,-1.82692,-7.983952
878,-5.8743796,-1.8340986,-7.9217386
879,-5.9007006,-1.8197416,-7.856833
880,-5.919843,-1.7599211,-7.732406
881,-5.9964137,-1.774278,-7.4162545
882,-6.0251274,-1.7599211,-7.2819576
883,-6.068198,-1.7862421,-6.9059854
884,-6.017949,-1.7599211,-6.6999035
885,-6.0394845,-1.7670995,-6.5682983
886,-5.994021,-1.8317057,-6.3646092
887,-5.8911295,-1.8918254,-6.316753
888,-5.840581,-1.9229321,-6.3981085
889,-5.5651073,-1.9133608,-6.4698935
890,-5.4502516,-1.87029,-6.5488563
891,-5.3306108,-1.8173488,-6.6711893
892,-5.2130632,-1.6953149,-6.7381887
893,-4.999803,-1.2951152,-6.687939
894,-4.959125,-1.2999009,-6.63769
895,-4.8011985,-0.9406784,-6.335895
896,-4.6286163,-0.53359944,-5.6889358
897,-4.499105,-0.50458646,-5.391927
898,-4.4321055,-0.5069793,-5.0422754
899,-4.221238,-0.67477596,-4.3761735
900,-4.0561333,-0.90478605,-4.29721
901,-3.9338005,-1.1012967,-4.287639
902,-3.6894333,-1.3648062,-4.5128636
903,-3.5267215,-1.5753746,-4.7189455
904,-3.3230324,-1.82692,-5.085346
905,-3.1719856,-1.9899311,-5.4182477
906,-3.100201,-2.2462623,-5.71765
907,-3.083451,-2.4475584,-5.904589
908,-3.19382,-2.7708886,-6.120242
909,-3.2416766,-2.8474588,-6.189634
910,-3.493222,-3.0080771,-6.448358
911,-3.6631124,-2.9168508,-6.6855464
912,-3.9146578,-2.7397819,-6.8389864
913,-4.1350965,-2.495415,-7.008877
914,-4.6908298,-2.1337996,-7.1096745
915,-5.3497534,-1.774278,-7.0519476
916,-5.716154,-1.5490535,-7.085447
917,-6.2144594,-1.3336995,-6.992127
918,-6.6574306,-1.0845468,-6.877271
919,-6.966703,-0.8353942,-6.704689
920,-7.1629148,-0.75613195,-6.3861446
921,-7.3809605,-0.8258229,-5.9548383
922,-7.498508,-1.0941181,-5.9237313
923,-7.515258,-1.4006985,-6.0436716
924,-7.4072814,-1.5948163,-6.3646092
925,-7.172486,-1.8173488,-6.9323063
926,-6.7965136,-1.9013968,-7.4401827
927,-6.1378894,-1.8511474,-8.010273
928,-5.6970115,-1.7288144,-8.2761755
929,-5.2274203,-1.5610176,-8.5349
930,-4.9064827,-1.4174483,-8.637791
931,-4.834698,-1.314557,-8.613862
932,-4.8586264,-1.2113664,-8.446364
933,-4.9495535,-1.1994023,-8.395817
934,-5.0766726,-1.1874382,-8.65454
935,-5.2106705,-1.1802598,-8.685647
936,-5.529215,-1.2687942,-8.738588
937,-5.807081,-1.2807583,-8.733803
938,-6.087341,-1.2879368,-8.690433
939,-6.4085774,-1.1682956,-8.56122
940,-6.6167526,-1.0076774,-8.630612
941,-6.7390857,-0.8353942,-8.67129
942,-6.8395844,-0.552742,-8.546864
943,-6.803692,-0.3275176,-8.319246
944,-6.7701926,-0.116650105,-8.103593
945,-6.7031937,0.077467635,-7.6606216
946,-6.741479,0.13489537,-7.5670023
947,-6.727122,0.04875376,-7.6510506
948,-6.5808606,-0.011365907,-7.983952
949,-6.4205413,-0.04007978,-8.448758
950,-6.176174,0.02213361,-9.22463
951,-6.06102,0.08703893,-9.569795
952,-6.0323057,0.25932217,-10.039087
953,-6.0921264,0.31465617,-10.1853485
954,-6.3125653,0.16360925,-9.873982
955,-6.5904317,0.07507481,-9.404391
956,-6.7965136,-0.04007978,-9.0595255
957,-7.146165,-0.1692922,-8.5014
958,-7.325926,-0.16450655,-8.245069
959,-7.325926,-0.08554341,-8.110771
960,-7.186843,0.25932217,-8.170592
961,-6.99781,0.5371887,-8.29771
962,-6.9065833,0.6451648,-8.379066
963,-6.6816583,0.8679964,-8.544471
964,-6.422934,0.9302098,-8.829515
965,-6.2120667,0.91106725,-8.990134
966,-5.9988065,0.81266236,-9.138489
967,-5.869594,0.750449,-9.22463
968,-5.651548,0.602094,-9.311071
969,-5.404788,0.4989035,-9.349357
970,-5.1341,0.2856432,-9.418748
971,-5.0862436,0.15403795,-9.500104
972,-5.069494,-0.04007978,-9.478569
973,-5.2369914,-0.1692922,-9.529117
974,-5.5675,-0.09750752,-9.780663
975,-5.799903,0.017347964,-9.876375
976,-6.087341,0.21864417,-10.056136
977,-6.406184,0.5491528,-10.111171
978,-6.774978,0.84406817,-10.060922
979,-7.079166,0.98524475,-10.048958
980,-7.3283186,1.2176477,-9.878768
981,-7.5463643,1.4117653,-9.795019
982,-7.713862,1.4069797,-9.533903
983,-7.826624,1.2583256,-9.270393
984,-7.8026958,1.076172,-9.016455
985,-7.6348987,0.73369926,-8.736196
986,-7.443174,0.61405814,-8.642576
987,-7.2326055,0.5395815,-8.652147
988,-6.8108706,0.43908295,-8.803194
989,-6.29103,0.44865423,-9.234201
990,-5.9437714,0.424726,-9.390035
991,-5.7927246,0.41515473,-9.507282
992,-5.6300125,0.4223332,-9.545867
993,-5.5052867,0.47976094,-9.536296
994,-5.598906,0.48454657,-9.397213
995,-5.7951174,0.38644084,-8.968299
996,-5.9581285,0.3481557,-8.788837
997,-6.152246,0.26171497,-8.587542
998,-6.3221364,0.17557336,-8.333603
999,-6.463612,0.014955142,-8.072486
1000,-6.4612193,-0.109471634,-7.844869
1001,-6.4827547,-0.20039889,-7.6363945
1002,-6.439684,-0.3179463,-7.5406814
1003,-6.399006,-0.3681956,-7.5981092
1004,-6.358029,-0.38733816,-7.682157
1005,-6.247959,-0.35623148,-7.813762
1006,-6.113662,-0.26291138,-8.031808
1007,-5.8935223,-0.119042926,-8.261818
1008,-5.6443696,0.027218357,-8.429316
1009,-5.47418,0.041575294,-8.573184
1010,-5.2489557,0.070289165,-8.647362
1011,-5.1963134,-0.064008005,-8.592327
1012,-5.181957,-0.2533401,-8.463115
1013,-5.2106705,-0.41365921,-8.438888
1014,-5.371289,-0.6412765,-8.374281
1015,-5.4406805,-0.6843473,-8.288139
1016,-5.5579286,-0.67477596,-8.230712
1017,-5.692226,-0.69152576,-8.165807
1018,-5.898308,-0.567099,-8.050951
1019,-6.101698,-0.5599205,-7.993523
1020,-6.2694945,-0.50458646,-7.8592257
1021,-6.3915286,-0.46630132,-7.7180495
1022,-6.489933,-0.39212382,-7.602895
1023,-6.4588265,-0.37058842,-7.533503
1024,-6.5090756,-0.37776688,-7.3489566
1025,-6.41097,-0.47108695,-7.3755765
1026,-6.2312093,-0.6723832,-7.6390862
1027,-6.113662,-0.8258229,-7.641479
1028,-5.907879,-0.97178507,-7.90469
1029,-5.869594,-1.0677971,-7.9480596
1030,-5.8022957,-1.1946167,-8.062915
1031,-5.773582,-1.2903296,-8.027022
1032,-5.8357954,-1.3624134,-8.003095
1033,-5.8286166,-1.3504493,-7.9600234
1034,-5.8477592,-1.340878,-8.02463
1035,-5.785546,-1.3046865,-8.113164
1036,-5.6946187,-1.2951152,-8.216354
1037,-5.6467624,-1.2735798,-8.290532
1038,-5.6036916,-1.3815559,-8.383852
1039,-5.7137613,-1.5418751,-8.288139
1040,-5.730511,-1.556232,-8.249854
1041,-5.79751,-1.5586249,-8.211569
1042,-5.8672013,-1.5610176,-8.005487
1043,-5.986842,-1.5658033,-7.708478
1044,-6.096912,-1.6881363,-7.387541
1045,-6.178567,-1.747957,-7.274779
1046,-6.152246,-1.8197416,-7.155138
1047,-6.0777693,-1.8125632,-7.147959
1048,-5.907879,-1.8101703,-7.2269225
1049,-5.7400823,-1.7599211,-7.3633137
1050,-5.4957156,-1.7144574,-7.5717883
1051,-5.3593245,-1.6498512,-7.68455
1052,-5.313562,-1.5729818,-7.756335
1053,-5.2226343,-1.556232,-7.7706914
1054,-5.313562,-1.4102699,-7.6363945
1055,-5.3497534,-1.2568301,-7.428219
1056,-5.4646087,-1.1443675,-7.2293153
1057,-5.4981084,-0.9813564,-6.814759
1058,-5.526822,-0.8712866,-6.661618
1059,-5.517251,-0.75613195,-6.120242
1060,-5.3904314,-0.66041905,-5.633901
1061,-5.1556354,-0.56470615,-4.927121
1062,-4.971089,-0.61016977,-4.465007
1063,-4.8323054,-0.6221339,-4.206283
1064,-4.5711884,-0.8330014,-3.9619162
1065,-4.235595,-1.0869397,-3.9714873
1066,-3.7758741,-1.4605191,-4.206283
1067,-3.5171502,-1.5876378,-4.508078
1068,-3.1169505,-1.7336,-4.8266225
1069,-2.923132,-1.8822541,-5.212166
1070,-2.6425736,-2.179263,-5.741578
1071,-2.4990041,-2.5265217,-6.105885
1072,-2.3383858,-2.7900312,-6.472286
1073,-2.3790638,-2.984149,-6.728617
1074,-2.5516462,-3.2237303,-7.0806613
1075,-2.9853454,-3.4199417,-7.2412796
1076,-3.5386856,-3.4055848,-7.128817
1077,-4.099204,-3.1420753,-7.0615187
1078,-4.633402,-2.8091738,-7.1048884
1079,-4.9639106,-2.4595225,-7.085447
1080,-5.3473606,-1.9803598,-6.97777
1081,-5.689833,-1.6761723,-6.8389864
1082,-6.3101726,-1.3432708,-6.5682983
1083,-6.818049,-1.0435698,-6.335895
1084,-7.3713894,-0.9311071,-6.1920266
1085,-7.8864446,-0.80907315,-6.213562
1086,-8.032705,-0.8425727,-6.201598
1087,-8.099705,-0.89282197,-6.340681
1088,-7.9558363,-1.0052847,-6.457929
1089,-7.433603,-1.1515459,-6.894021
1090,-6.9065833,-1.326521,-7.13121
1091,-6.4588265,-1.5011971,-7.4210405
1092,-6.0658054,-1.599602,-7.955238
1093,-5.5914283,-1.6953149,-8.393424
1094,-5.201099,-1.6019948,-8.841479
1095,-4.932804,-1.5299109,-9.064311
1096,-4.7458644,-1.4533406,-9.323035
1097,-4.7674,-1.3648062,-9.45464
1098,-4.928018,-1.3022938,-9.447462
1099,-5.1053863,-1.2496517,-9.16481
1100,-5.3593245,-1.2161521,-8.690433
1101,-5.5316076,-1.0534402,-8.182856
1102,-5.649155,-0.9622138,-7.9169526
1103,-5.730511,-0.8880363,-7.9097743
1104,-5.773582,-0.8138588,-7.9624166
1105,-5.756832,-0.5982057,-8.29771
1106,-5.716154,-0.51445687,-8.359924
1107,-5.6300125,-0.48305106,-8.647362
1108,-5.668298,-0.567099,-8.697611
1109,-5.651548,-0.61016977,-8.635398
1110,-5.6850476,-0.6149554,-8.68804
1111,-5.8214383,-0.5814559,-8.772088
1112,-5.9007006,-0.43040898,-8.896515
1113,-5.898308,-0.29162526,-9.112167
1114,-5.9413786,-0.12622139,-9.217452
1115,-5.871987,-0.047258247,-9.109775
1116,-5.81426,0.12771691,-8.91805
1117,-5.7376895,0.26171497,-8.656933
1118,-5.895915,0.2955136,-8.350353
1119,-5.95095,0.3290131,-8.29771
1120,-6.0729837,0.317049,-8.369495
1121,-6.152246,0.32422748,-8.695218
1122,-6.247959,0.23778675,-9.033205
1123,-6.2862444,0.13010973,-9.198309
1124,-6.3891354,0.11096715,-9.320642
1125,-6.5928245,0.122931264,-9.413962
1126,-6.8682985,0.06550352,-9.313464
1127,-7.112665,0.15164514,-9.313464
1128,-7.179664,0.3385844,-9.363713
1129,-7.1820574,0.6236294,-9.476176
1130,-7.225427,0.79112697,-9.457033
1131,-7.0839515,1.0809577,-9.440284
1132,-7.0337024,1.1195419,-9.287143
1133,-6.9332037,0.96849495,-9.222238
1134,-6.84437,0.6762715,-9.116954
1135,-6.7127647,0.424726,-8.985348
1136,-6.4420767,0.18514465,-9.193523
1137,-6.2024956,0.18275183,-9.409177
1138,-6.0227346,0.15403795,-9.579367
1139,-5.6563334,0.27367908,-10.099207
1140,-5.601299,0.27367908,-10.285848
1141,-5.5507503,0.3361916,-10.381859
1142,-5.541179,0.30987054,-10.451251
1143,-5.536393,0.33379877,-10.3340025
1144,-5.6467624,0.41994038,-10.142278
1145,-5.732904,0.64277196,-10.031909
1146,-5.826224,0.76241314,-10.010373
1147,-5.962914,0.92303133,-9.943375
1148,-6.068198,1.0809577,-9.818948
1149,-6.209674,1.212862,-9.691829
1150,-6.247959,1.2056835,-9.591331
1151,-6.358029,1.1051849,-9.373284
1152,-6.399006,1.1075778,-9.260822
1153,-6.413363,0.82701933,-9.174381
1154,-6.4325056,0.6667002,-9.140882
1155,-6.3747787,0.3290131,-9.004491
1156,-6.3915286,0.15643078,-8.963513
1157,-6.3532434,-0.10229317,-8.719446
1158,-6.3221364,-0.20757736,-8.5014
1159,-6.314958,-0.1692922,-8.307282
1160,-6.4037914,-0.12622139,-8.209176
1161,-6.5282183,0.014955142,-8.110771
1162,-6.5832534,0.067896344,-7.9624166
1163,-6.59761,0.058325052,-8.022237
1164,-6.50429,0.12532409,-8.225926
1165,-6.4013987,0.15643078,-8.321639
1166,-6.4013987,0.15643078,-8.321639
1167,-5.922236,0.16121642,-8.599505
1168,-5.7520466,0.07986046,-8.4655075
1169,-5.6300125,-0.12861422,-8.386245
1170,-5.553143,-0.2219343,-8.34796
1171,-5.5483575,-0.3610171,-8.278568
1172,-5.541179,-0.4639085,-8.285747
1173,-5.560322,-0.49501517,-8.4655075
1174,-5.6204414,-0.42083767,-8.542078
1175,-5.6300125,-0.28205398,-8.585149
1176,-5.675476,-0.18843478,-8.544471
1177,-5.783153,-0.1788635,-8.402995
1178,-5.8357954,-0.15014961,-8.273783
1179,-5.8863435,-0.18125631,-8.185248
1180,-5.9150577,-0.17647067,-8.156235
1181,-6.013163,-0.2844468,-7.979166
1182,-6.0825553,-0.42562333,-7.725228
1183,-6.111269,-0.5288138,-7.68455
1184,-6.04427,-0.61734825,-7.559824
1185,-6.0825553,-0.78035927,-7.516753
1186,-6.084948,-0.8449655,-7.516753
1187,-6.005985,-0.9311071,-7.5000033
1188,-5.9437714,-1.0244272,-7.5550385
1189,-5.6730833,-1.0486546,-7.818548
1190,-5.526822,-0.98853487,-7.9504523
1191,-5.392824,-0.9765707,-8.074879
1192,-5.323133,-0.9981061,-8.1347
1193,-5.3832526,-1.0435698,-8.211569
1194,-5.517251,-1.0387841,-8.302496
1195,-5.723333,-0.9957133,-8.328817
1196,-6.070591,-0.91196454,-8.211569
1197,-6.4037914,-0.80907315,-8.062915
1198,-6.535397,-0.6987042,-7.7850485
1199,-6.6792655,-0.6891329,-7.590931
1200,-6.7701926,-0.7393822,-7.315457
1201,-6.875477,-0.959821,-7.0639114
1202,-6.803692,-1.2137593,-7.0471616
1203,-6.652645,-1.3959129,-7.1431737
1204,-6.4348984,-1.6761723,-7.246065
1205,-6.2264237,-1.7790636,-7.401898
1206,-5.9748783,-1.7790636,-7.550253
1207,-5.7017975,-1.7647067,-7.7108707
1208,-5.5579286,-1.7527425,-7.602895
1209,-5.3353963,-1.707279,-7.461718
1210,-5.265705,-1.6642082,-7.399505
1211,-5.189135,-1.7024933,-7.3657064
1212,-5.189135,-1.7503498,-7.3322067
1213,-5.201099,-1.7599211,-7.387541
1214,-5.205885,-1.8750757,-7.368099
1215,-5.2274203,-1.8774685,-7.476075
1216,-5.2489557,-1.8221345,-7.543074
1217,-5.3856454,-1.6139588,-7.507182
1218,-5.476573,-1.3911272,-7.305886
1219,-5.5675,-1.2257234,-7.083054
1220,-5.663512,-1.0725827,-6.7094746
1221,-5.7544394,-0.93349993,-6.170491
1222,-5.7352967,-0.715454,-5.4637113
1223,-5.541179,-0.5814559,-4.7620163
1224,-5.3736815,-0.5069793,-4.3594236
1225,-5.1795635,-0.5021936,-3.85394
1226,-4.8490553,-0.68195444,-3.5736806
1227,-4.441677,-0.89042914,-3.7558343
1228,-4.1183467,-1.1180464,-4.215854
1229,-3.7061832,-1.2975081,-4.7596235
1230,-3.3086755,-1.3695918,-5.3392844
1231,-2.865405,-1.474876,-5.8974104
1232,-2.556432,-1.692922,-6.383752
1233,-2.4272194,-2.0425732,-6.7118673
1234,-2.566003,-2.588735,-6.97777
1235,-2.7792635,-3.0439694,-7.1021967
1236,-3.1576285,-3.321836,-7.0950184
1237,-3.519543,-3.417549,-7.1431737
1238,-3.76391,-3.4079776,-7.2101727
1239,-4.302893,-3.1755748,-7.205387
1240,-4.7745786,-2.7708886,-7.1838517
1241,-5.296812,-2.2103698,-7.274779
1242,-5.598906,-1.814956,-7.238887
1243,-6.017949,-1.2520444,-6.9849486
1244,-6.3771715,-0.9454641,-6.853343
1245,-6.774978,-0.8449655,-6.678368
1246,-7.1389866,-0.8330014,-6.5225353
1247,-7.373782,-0.97896355,-6.40768
1248,-7.440781,-1.2520444,-6.4268227
1249,-7.155736,-1.4006985,-6.704689
1250,-6.669694,-1.4054842,-6.814759
1251,-6.152246,-1.3695918,-6.910771
1252,-5.6180487,-1.314557,-7.1168528
1253,-5.1556354,-1.3719847,-7.425826
1254,-4.7916274,-1.4796617,-7.737192
1255,-4.532903,-1.6450655,-8.062915
1256,-4.5134616,-1.7240287,-8.235497
1257,-4.518247,-1.9037895,-8.99492
1258,-4.6932225,-1.8966111,-9.524331
1259,-4.88734,-1.7790636,-9.900304
1260,-5.1963134,-1.5681962,-10.005588
1261,-5.476573,-1.3695918,-9.830912
1262,-6.1642103,-1.1491531,-9.011669
1263,-6.4827547,-1.1347961,-8.695218
1264,-7.064809,-1.1012967,-8.1179495
1265,-7.4240313,-1.0462617,-7.7587276
1266,-7.8026958,-0.9741779,-7.409076
1267,-7.9941216,-0.6771688,-7.195816
1268,-8.047063,-0.38494533,-7.179066
1269,-7.824231,0.09661021,-7.327421
1270,-7.4647093,0.47018966,-7.4976106
1271,-7.045666,0.79112697,-7.6462646
1272,-6.437291,0.9493524,-7.830512
1273,-6.1642103,0.85842514,-8.058129
1274,-6.0394845,0.71455663,-8.178069
1275,-5.7017975,0.2545365,-8.71466
1276,-5.4670014,-0.116650105,-8.975478
1277,-5.328218,-0.3059822,-9.069097
1278,-5.2345986,-0.6652047,-9.390035
1279,-5.110172,-0.8425727,-9.425926
1280,-5.1771708,-0.8042875,-9.406784
1281,-5.2441697,-0.4854439,-9.179167
1282,-5.4670014,-0.1477568,-9.030811
1283,-5.79751,0.11335997,-8.889337
1284,-6.140282,0.34097722,-8.781659
1285,-6.4492555,0.51565325,-8.668898
1286,-6.6574306,0.65952176,-8.554042
1287,-6.7630143,0.72412795,-8.522935
1288,-6.8108706,0.7791629,-8.506186
1289,-6.7582283,0.76241314,-8.546864
1290,-6.4157557,0.7576275,-8.633005
1291,-6.1474605,0.64277196,-8.71466
1292,-5.8597236,0.5949155,-8.793623
1293,-5.5507503,0.54675996,-9.11456
1294,-5.4023952,0.5709873,-9.263215
1295,-5.3449674,0.53240305,-9.648758
1296,-5.4263234,0.41754755,-10.051351
1297,-5.6300125,0.32662028,-10.202099
1298,-5.8334026,0.24017957,-10.170992
1299,-6.288637,0.17557336,-10.1016
1300,-6.6311097,0.20907287,-10.132707
1301,-7.007381,0.28803602,-9.857233
1302,-7.3307114,0.2955136,-9.75165
1303,-7.5056863,0.4438686,-9.603294
1304,-7.603792,0.5925227,-9.600902
1305,-7.632506,0.8632108,-9.54826
1306,-7.555936,1.0570294,-9.39482
1307,-7.5344005,1.1362916,-9.299107
1308,-7.3402824,1.0737791,-9.183952
1309,-7.1916285,0.90149593,-9.183952
1310,-6.983453,0.82701933,-9.354142
1311,-6.6622167,0.67387867,-9.632009
1312,-6.053841,0.6475576,-10.010373
1313,-5.8743796,0.6667002,-10.115957
1314,-5.392824,0.76241314,-10.276276
1315,-5.1436715,0.81266236,-10.249955
1316,-5.0141597,0.84406817,-10.00798
1317,-5.1341,0.68823564,-9.572187
1318,-5.1532426,0.59730834,-9.382855
1319,-5.5076795,0.34337005,-8.99492
1320,-5.7544394,0.19710876,-8.733803
1321,-6.02752,0.02213361,-8.362317
1322,-6.1642103,-0.05682954,-8.201998
1323,-6.3125653,-0.11425728,-7.9313097
1324,-6.2551374,-0.04965107,-7.7587276
1325,-6.283851,-0.008973085,-7.6869426
1326,-6.152246,-0.0041874396,-7.7012997
1327,-6.135496,-0.05682954,-7.820941
1328,-6.1208405,-0.15254244,-7.9648094
1329,-6.0753765,-0.09750752,-8.185248
1330,-5.9748783,0.08703893,-8.513364
1331,-5.864808,0.2114657,-8.601898
1332,-5.7209396,0.26171497,-8.647362
1333,-5.658726,0.1683949,-8.62822
1334,-5.598906,-0.008973085,-8.470293
1335,-5.59412,-0.2219343,-8.319246
1336,-5.716154,-0.4543372,-8.139485
1337,-5.79751,-0.53359944,-8.091629
1338,-5.79751,-0.567099,-8.017451
1339,-5.7017975,-0.5599205,-7.9767733
1340,-5.634798,-0.45912284,-8.065308
1341,-5.5914283,-0.42801616,-8.149056
1342,-5.4957156,-0.25812575,-8.39821
1343,-5.4909296,-0.27008986,-8.503793
1344,-5.4957156,-0.24376881,-8.616255
1345,-5.543572,-0.2868396,-8.604291
1346,-5.682655,-0.33469605,-8.56122
1347,-5.9413786,-0.5096712,-8.335996
1348,-6.1064835,-0.526421,-8.228319
1349,-6.200103,-0.49980083,-8.108378
1350,-6.2718873,-0.46630132,-8.053344
1351,-6.2623158,-0.3681956,-7.7347994
1352,-6.3197436,-0.37298122,-7.6917286
1353,-6.2048883,-0.37058842,-7.5622168
1354,-6.1184473,-0.40408793,-7.550253
1355,-5.9437714,-0.47826543,-7.516753
1356,-5.7640104,-0.58624154,-7.5215387
1357,-5.7113686,-0.64606214,-7.5239315
1358,-5.598906,-0.9406784,-7.643872
1359,-5.6204414,-1.1850454,-7.670193
1360,-5.783153,-1.5538392,-7.804191
1361,-5.83101,-1.6594225,-7.806584
1362,-6.0011992,-1.8559331,-7.955238
1363,-6.0801625,-1.8364913,-7.9911304
1364,-6.1378894,-1.6378871,-8.000702
1365,-6.2264237,-1.434198,-7.8831544
1366,-6.3460646,-1.1706885,-7.6773715
1367,-6.3628144,-0.9382856,-7.6749787
1368,-6.341279,-0.8138588,-7.6292157
1369,-6.3676,-0.878465,-7.5693955
1370,-6.430113,-1.0244272,-7.5215387
1371,-6.4731836,-1.2664014,-7.4401827
1372,-6.451648,-1.5753746,-7.4066834
1373,-6.425327,-1.7216359,-7.344171
1374,-6.399006,-1.8487546,-7.370791
1375,-6.298208,-1.9420747,-7.4042907
1376,-6.1905313,-2.0665014,-7.435397
1377,-5.9700923,-2.1000009,-7.5263247
1378,-5.81426,-2.11705,-7.4880395
1379,-5.665905,-2.184049,-7.5263247
1380,-5.5914283,-2.3611178,-7.435397
1381,-5.5890355,-2.5121646,-7.370791
1382,-5.6706905,-2.6341987,-7.385148
1383,-5.742475,-2.7469604,-7.368099
1384,-5.7759748,-2.6174488,-7.2412796
1385,-5.8911295,-2.2295125,-7.0782685
1386,-5.9437714,-1.4796617,-6.853343
1387,-5.898308,-0.878465,-6.5754766
1388,-5.8501525,-0.62931234,-6.48425
1389,-5.601299,0.09900304,-5.7753763
1390,-5.543572,0.25692934,-5.4999027
1391,-5.3832526,0.41994038,-4.881657
1392,-5.306383,0.34337005,-4.2661037
1393,-5.098208,-0.10468599,-3.5736806
1394,-4.9902315,-0.2940181,-3.5042887
1395,-4.64058,-0.87607217,-3.5114672
1396,-4.403392,-1.3528421,-3.636193
1397,-4.1255255,-1.7982062,-3.9451663
1398,-3.8261235,-2.169692,-4.3354955
1399,-3.5075788,-2.2989044,-4.776373
1400,-3.19382,-2.5791638,-5.4756756
1401,-2.9614172,-2.766103,-6.1154566
1402,-2.8462625,-2.9048867,-6.524928
1403,-2.7672994,-3.0942187,-7.073483
1404,-2.757728,-3.2213376,-7.289136
1405,-2.8366911,-3.0990045,-7.3803625
1406,-3.205784,-2.7708886,-7.344171
1407,-3.4980075,-2.4762723,-7.2173514
1408,-4.008277,-2.0425732,-7.073483
1409,-4.377071,-1.8607187,-6.870093
1410,-5.040481,-1.692922,-6.6711893
1411,-5.4981084,-1.6474584,-6.582655
1412,-6.140282,-1.4365909,-6.613762
1413,-6.4013987,-1.3217354,-6.6855464
1414,-6.7989063,-1.0725827,-6.8195443
1415,-6.818049,-0.9933205,-6.937092
1416,-6.8635125,-1.1515459,-6.951449
1417,-6.7869425,-1.3743775,-6.8796644
1418,-6.75105,-1.5299109,-6.9035926
1419,-6.578468,-1.5753746,-7.112067
1420,-6.3604217,-1.6235301,-7.279565
1421,-6.128019,-1.5924234,-7.626823
1422,-5.8743796,-1.5610176,-8.050951
1423,-5.749654,-1.5131612,-8.640183
1424,-5.692226,-1.5203397,-8.944371
1425,-5.677869,-1.4437693,-9.193523
1426,-5.639584,-1.434198,-9.306286
1427,-5.608477,-1.3432708,-9.116954
1428,-5.649155,-1.1994023,-8.760123
1429,-5.641977,-1.0363913,-8.522935
1430,-5.83101,-0.8234301,-8.190034
1431,-5.9724855,-0.76570326,-8.139485
1432,-6.04427,-0.75613195,-8.225926
1433,-6.0777693,-0.81864446,-8.285747
1434,-6.1040907,-0.9526425,-8.542078
1435,-6.25753,-1.1659029,-8.700004
1436,-6.3628144,-1.2281163,-8.85823
1437,-6.4444695,-1.2496517,-9.299107
1438,-6.559325,-1.1371889,-9.440284
1439,-6.59761,-0.87367934,-9.617652
1440,-6.430113,-0.21954148,-9.610473
1441,-6.298208,0.16121642,-9.5506525
1442,-6.200103,0.50129634,-9.39482
1443,-5.9820566,0.80787677,-8.855837
1444,-6.056234,0.7217351,-8.017451
1445,-6.154639,0.4534399,-7.516753
1446,-6.283851,0.0029910284,-7.1021967
1447,-6.2288165,-0.30119655,-7.155138
1448,-5.881558,-0.58624154,-7.6606216
1449,-5.7951174,-0.634098,-7.763513
1450,-5.352146,-0.4758726,-8.659326
1451,-5.1436715,-0.38733816,-9.112167
1452,-5.0141597,-0.27966115,-9.725328
1453,-4.959125,-0.17407785,-10.199706
1454,-5.124529,-0.0735793,-10.434502
1455,-5.3159547,0.13010973,-10.309775
1456,-5.816653,0.16121642,-10.106385
1457,-6.235995,0.17557336,-9.790234
1458,-6.6598234,0.1372882,-9.373284
1459,-7.18445,0.24735804,-9.102596
1460,-7.3689966,0.41754755,-8.953942
1461,-7.4192457,0.7719844,-8.7673025
1462,-7.3163543,0.95653087,-8.755338
1463,-7.18445,1.0713863,-8.692825
1464,-6.8706913,1.1482558,-8.841479
1465,-6.355636,0.97567344,-9.287143
1466,-5.936593,0.77677006,-9.677472
1467,-5.7687964,0.7600203,-9.850055
1468,-5.1963134,0.64037913,-10.242777
1469,-4.863412,0.6164509,-10.63819
1470,-4.6286163,0.5587241,-10.997413
1471,-4.633402,0.5276174,-11.327922
1472,-4.863412,0.52283174,-11.3880415
1473,-5.4239306,0.59970117,-11.172388
1474,-5.9844494,0.7480562,-10.889736
1475,-6.6335025,0.8703892,-10.585548
1476,-7.004988,0.9589237,-10.319646
1477,-7.498508,1.1626127,-9.8117695
1478,-7.7356963,1.306182,-9.349357
1479,-7.893623,1.3734802,-8.898908
1480,-8.015956,1.3950156,-8.499007
1481,-8.013563,1.2702898,-8.048558
1482,-7.9630146,1.1219348,-7.8017983
1483,-7.7739816,0.84406817,-7.713264
1484,-7.2876406,0.3792624,-7.765906
1485,-6.875477,0.03918247,-7.885547
1486,-6.422934,-0.16450655,-8.050951
1487,-5.81426,-0.38733816,-8.288139
1488,-5.81426,-0.38733816,-8.288139
1489,-5.0886364,-0.65084773,-8.515757
1490,-4.671687,-0.75613195,-8.65454
1491,-4.5206404,-0.72263247,-8.68804
1492,-4.276572,-0.6364908,-8.748159
1493,-4.1422753,-0.4112664,-8.7673025
1494,-4.1183467,-0.2844468,-8.822337
1495,-4.1901317,-0.31076783,-8.810373
1496,-4.384249,-0.37058842,-8.855837
1497,-4.6549373,-0.48065826,-8.874979
1498,-5.0069814,-0.5766702,-8.908479
1499,-5.4311094,-0.60059845,-8.860622
1500,-5.7807603,-0.55034924,-8.740981
1501,-5.979664,-0.4447659,-8.549256
1502,-6.224031,-0.32512477,-8.5349
1503,-6.3364935,-0.19561325,-8.434102
1504,-6.454041,-0.09750752,-8.280961
1505,-6.535397,-0.16450655,-8.211569
1506,-6.5808606,-0.26769704,-8.115557
1507,-6.619146,-0.36340994,-8.000702
1508,-6.6239314,-0.40408793,-7.967202
1509,-6.571289,-0.37776688,-7.8089767
1510,-6.4325056,-0.32273194,-7.8017983
1511,-6.2694945,-0.39930227,-7.7994056
1512,-6.1881385,-0.59342,-7.832905
1513,-6.159425,-0.6843473,-7.8664045
1514,-6.070591,-0.87607217,-8.012666
1515,-5.986842,-0.9813564,-8.163414
1516,-5.9342003,-0.9693923,-8.192427
1517,-5.680262,-0.90478605,-8.242676
1518,-5.4933224,-0.74416786,-8.393424
1519,-5.32074,-0.7082755,-8.33121
1520,-5.2513485,-0.6771688,-8.359924
1521,-5.2848477,-0.7537391,-8.137093
1522,-5.4789658,-0.9765707,-8.0677
1523,-5.6970115,-1.1587243,-8.070093
1524,-5.986842,-1.3959129,-7.9743805
1525,-6.1450677,-1.5658033,-7.928917
1526,-6.2790656,-1.6426728,-7.806584
1527,-6.2431736,-1.5777674,-7.5933237
1528,-6.108876,-1.3648062,-7.6941214
1529,-5.8767724,-1.1419746,-7.8903327
1530,-5.7783675,-1.1994023,-7.8233337
1531,-5.7640104,-1.2735798,-7.813762
1532,-5.658726,-1.5011971,-7.8927255
1533,-5.625227,-1.585245,-7.986345
1534,-5.658726,-1.6809579,-7.9983087
1535,-5.651548,-1.82692,-8.017451
1536,-5.598906,-1.9444675,-7.955238
1537,-5.5890355,-1.9396819,-7.981559
1538,-5.5890355,-2.1433709,-7.756335
1539,-5.61087,-2.3252254,-7.5047894
1540,-5.569893,-2.4499512,-7.3899336
1541,-5.608477,-2.483451,-7.2843504
1542,-5.59412,-2.5169504,-7.195816
1543,-5.658726,-2.5791638,-7.181459
1544,-5.6946187,-2.5839493,-7.1742806
1545,-5.708976,-2.4284158,-7.279565
1546,-5.771189,-2.2295125,-7.3250284
1547,-5.7257257,-1.8655044,-7.3011003
1548,-5.649155,-1.4461622,-7.1216383
1549,-5.6276197,-1.0462617,-6.812366
1550,-5.608477,-0.79950184,-6.381359
1551,-5.512465,-0.6029913,-5.6961145
1552,-5.4789658,-0.5838487,-5.257929
1553,-5.337789,-0.60777694,-4.77398
1554,-5.158028,-0.61016977,-4.4674
1555,-4.9495535,-0.7680961,-4.301996
1556,-4.7339005,-0.87607217,-4.3211384
1557,-4.386642,-1.1706885,-4.587041
1558,-4.0704904,-1.2711871,-4.9055853
1559,-3.7974095,-1.4126626,-5.2483573
1560,-3.6343985,-1.5804594,-5.4637113
1561,-3.4692938,-1.9037895,-5.729614
1562,-3.3565319,-2.155335,-5.959624
1563,-3.3062828,-2.2821546,-6.0867424
1564,-3.3517463,-2.466701,-6.326324
1565,-3.4259238,-2.5241287,-6.3191457
1566,-3.5506496,-2.5097718,-6.294918
1567,-3.7208393,-2.4714868,-6.2327046
1568,-4.025027,-2.3635106,-6.189634
1569,-4.3579283,-2.3228326,-6.1680984
1570,-4.631009,-2.2677977,-6.1680984
1571,-5.131707,-2.1047866,-6.294918
1572,-5.325825,-2.0617158,-6.4005013
1573,-5.649155,-1.7910278,-6.5344996
1574,-5.9916277,-1.4413766,-6.721439
1575,-6.128019,-1.1228321,-6.7573314
1576,-6.1570315,-0.90478605,-6.788438
1577,-6.159425,-0.8425727,-6.63769
1578,-6.159425,-1.1324034,-6.5512495
1579,-6.176174,-1.3695918,-6.3885374
1580,-6.2312093,-1.8894325,-6.6185474
1581,-6.1857457,-2.3539393,-6.937092
1582,-5.9724855,-2.5145576,-7.543074
1583,-5.840581,-2.4355943,-7.8352976
1584,-5.3760743,-1.966003,-8.412566
1585,-5.2489557,-1.7264216,-8.515757
1586,-5.232206,-1.3935201,-8.606684
1587,-5.4502516,-1.3432708,-8.350353
1588,-5.6324053,-1.3169497,-8.242676
1589,-5.9844494,-1.2329018,-8.005487
1590,-6.1184473,-1.2089736,-7.885547
1591,-6.300601,-0.83778703,-7.665407
1592,-6.3125653,-0.60777694,-7.6462646
1593,-6.3364935,-0.39930227,-7.6462646
1594,-6.3795643,-0.4447659,-7.7443705
1595,-6.4492555,-0.5312066,-7.8424764
1596,-6.369993,-0.8808578,-8.048558
1597,-6.3125653,-1.0749756,-8.094022
1598,-6.1857457,-1.16351,-8.228319
1599,-6.056234,-1.2352947,-8.242676
1600,-6.0634127,-1.2065809,-8.163414
1601,-6.1208405,-1.1587243,-8.190034
1602,-6.1331034,-0.9287143,-8.518149
1603,-6.149853,-0.68195444,-8.827123
1604,-6.0514483,-0.46630132,-8.927621
1605,-5.922236,-0.20757736,-8.882157
1606,-5.773582,0.027218357,-8.839087
1607,-5.6611195,0.20907287,-8.8701935
1608,-5.5627146,0.28085756,-9.016455
1609,-5.36411,0.37208393,-9.119347
1610,-5.280062,0.43429732,-9.2437725
1611,-5.201099,0.41754755,-9.311071
1612,-5.3039904,0.25932217,-9.53151
1613,-5.340182,0.19232312,-9.634401
1614,-5.536393,-0.030508488,-9.648758
1615,-5.799903,-0.116650105,-9.490533
1616,-5.879165,-0.13339986,-9.339785
1617,-6.2934227,-0.14057833,-9.157631
1618,-6.456434,-0.116650105,-9.150453
1619,-6.595217,-0.061615184,-9.1719885
1620,-6.753443,0.17796618,-9.287143
1621,-6.9355965,0.49172506,-9.406784
1622,-6.99781,0.71694946,-9.485747
1623,-7.064809,0.8246265,-9.51476
1624,-7.160522,0.9493524,-9.315857
1625,-7.1102724,0.88235337,-9.045169
1626,-7.1509504,0.7360921,-8.980562
1627,-6.9882383,0.424726,-9.260822
1628,-6.8467627,0.25692934,-9.639187
1629,-6.5138617,0.19471595,-9.986445
1630,-6.1881385,0.25932217,-10.293026
1631,-5.905486,0.3290131,-10.525429
1632,-5.759225,0.42951167,-10.645369
1633,-5.7448683,0.43669012,-10.695618
1634,-5.8334026,0.5733801,-10.688439
1635,-5.953343,0.5877371,-10.451251
1636,-5.9964137,0.6092725,-10.266705
1637,-5.9581285,0.7193423,-10.039087
1638,-5.9653068,0.77677006,-9.974482
1639,-5.9557357,0.9661021,-9.816555
1640,-6.0011992,1.0091729,-9.586545
1641,-5.938986,1.0546366,-9.468997
1642,-5.8477592,1.0187442,-9.390035
1643,-5.6300125,0.9732806,-9.2437725
1644,-5.419145,0.8246265,-9.2895355
1645,-5.189135,0.6762715,-9.315857
1646,-5.0165524,0.46061835,-9.399606
1647,-4.975875,0.24975087,-9.466604
1648,-4.9782677,0.04875376,-9.435498
1649,-5.1149573,-0.13579269,-9.342177
1650,-5.2537413,-0.09032906,-9.157631
1651,-5.428716,-0.07836494,-8.968299
1652,-5.601299,0.12532409,-8.6090765
1653,-5.9294147,0.37447673,-8.194819
1654,-6.0801625,0.4438686,-7.9097743
1655,-6.152246,0.49651068,-7.7994056
1656,-6.233602,0.46779683,-7.7156568
1657,-6.2407804,0.28085756,-7.77787
1658,-6.142675,0.122931264,-8.04138
1659,-6.04427,0.115752794,-8.242676
1660,-5.756832,0.03678965,-8.62822
1661,-5.5746784,-0.15493527,-8.961121
1662,-5.3856454,-0.21954148,-9.081061
1663,-5.1675997,-0.4016951,-9.061918
1664,-4.9471607,-0.5814559,-9.069097
1665,-4.90409,-0.65324056,-8.860622
1666,-4.9519463,-0.7585248,-8.589934
1667,-5.0452666,-0.76331043,-8.520542
1668,-5.232206,-0.9095717,-8.247461
1669,-5.4382877,-0.97178507,-8.175676
1670,-5.514858,-0.97178507,-8.1347
1671,-5.7281184,-0.72023964,-8.146664
1672,-5.7520466,-0.49022955,-8.319246
1673,-5.7113686,-0.2868396,-8.503793
1674,-5.680262,-0.20518455,-8.695218
1675,-5.625227,-0.24855445,-8.980562
1676,-5.61087,-0.32273194,-9.052347
1677,-5.639584,-0.497408,-8.9108715
1678,-5.7951174,-0.634098,-8.683254
1679,-6.101698,-0.8641081,-8.206783
1680,-6.329315,-0.9095717,-7.993523
1681,-6.4348984,-0.9406784,-7.8592257
1682,-6.5521464,-0.9167502,-7.5215387
1683,-6.413363,-0.8593224,-7.45454
1684,-6.2862444,-0.7827521,-7.54786
1685,-6.02752,-0.72263247,-8.000702
1686,-5.8597236,-0.8330014,-8.249854
1687,-5.6324053,-0.8497511,-8.386245
1688,-5.323133,-0.9741779,-8.601898
1689,-5.069494,-1.0677971,-8.678469
1690,-5.0958147,-1.1132607,-8.707183
1691,-5.148457,-1.2352947,-8.661719
1692,-5.1341,-1.2640085,-8.542078
1693,-5.2130632,-1.2472588,-8.510971
1694,-5.325825,-1.2329018,-8.438888
1695,-5.553143,-1.2520444,-8.335996
1696,-5.730511,-1.3217354,-8.201998
1697,-5.9174504,-1.3959129,-8.02463
1698,-6.029913,-1.4533406,-7.938488
1699,-6.020342,-1.4294125,-7.9624166
1700,-6.013163,-1.434198,-8.120343
1701,-5.953343,-1.4150555,-8.149056
1702,-5.8767724,-1.4270196,-8.228319
1703,-5.7616177,-1.4126626,-8.314461
1704,-5.7783675,-1.4916258,-8.431708
1705,-5.8863435,-1.6235301,-8.386245
1706,-5.9700923,-1.7647067,-8.278568
1707,-6.1642103,-1.9444675,-7.979166
1708,-6.209674,-2.0617158,-7.7682986
1709,-6.235995,-2.1047866,-7.535896
1710,-6.216852,-2.1023939,-7.3609204
1711,-6.1450677,-2.1119652,-6.965806
1712,-6.0418773,-1.9995024,-6.728617
1713,-5.9342003,-1.8894325,-6.5922265
1714,-5.665905,-1.7790636,-6.4220366
1715,-5.4670014,-1.6163517,-6.350252
1716,-5.311169,-1.4940187,-6.256633
1717,-5.0718865,-1.218545,-6.038886
1718,-4.9256253,-1.1826526,-5.849554
1719,-4.813163,-1.055833,-5.5429735
1720,-4.5999026,-1.0387841,-5.2435718
1721,-4.3962135,-1.0363913,-4.912764
1722,-4.254738,-1.1228321,-4.5942197
1723,-4.10399,-1.3313067,-4.4192443
1724,-4.022634,-1.5323038,-4.2828536
1725,-3.9816568,-1.7168503,-4.345067
1726,-3.8237305,-2.1361923,-4.4168515
1727,-3.5961134,-2.3060827,-4.625326
1728,-3.3517463,-2.437987,-4.88405
1729,-3.179164,-2.4690938,-5.1762733
1730,-2.9084759,-2.5049863,-5.5405807
1731,-2.8582265,-2.586342,-5.851947
1732,-2.8917263,-2.6608188,-6.0891356
1733,-3.054737,-2.8163524,-6.5129642
1734,-3.3397822,-2.9195428,-6.958627
1735,-3.6918263,-2.7996025,-7.0758758
1736,-4.0441694,-2.7278178,-7.030412
1737,-4.88734,-2.4595225,-6.8509502
1738,-5.1556354,-2.318047,-6.7501526
1739,-5.6994042,-1.977967,-6.6161547
1740,-6.04427,-1.6450655,-6.381359
1741,-6.3053865,-1.3384851,-6.1393847
1742,-6.4492555,-1.1156535,-5.9955163
1743,-6.6574306,-0.7827521,-6.1250277
1744,-6.882655,-0.72741807,-6.2255263
1745,-7.0863442,-0.93349993,-6.3741803
1746,-7.3283186,-1.326521,-6.6089764
1747,-7.359425,-1.6618153,-6.8195443
1748,-7.1342006,-1.8607187,-6.958627
1749,-6.8204417,-1.9133608,-7.171888
1750,-6.6215386,-1.8798612,-7.2101727
1751,-6.0490556,-1.8173488,-7.43779
1752,-5.7759748,-1.7407784,-7.643872
1753,-5.512465,-1.6378871,-7.7682986
1754,-5.1771708,-1.6402799,-8.094022
1755,-5.0766726,-1.5876378,-8.283354
1756,-4.6549373,-1.5227325,-8.52772
1757,-4.4871407,-1.4054842,-8.637791
1758,-4.4656053,-1.3815559,-8.68804
1759,-4.417749,-1.3624134,-8.841479
1760,-4.4727836,-1.2161521,-8.999705
1761,-4.712365,-1.0917253,-8.982955
1762,-5.1293144,-0.919143,-8.9108715
1763,-5.4981084,-0.811466,-8.784052
1764,-6.02752,-0.72023964,-8.508578
1765,-6.480362,-0.65084773,-8.209176
1766,-6.736693,-0.64606214,-7.9719877
1767,-7.115058,-0.6939186,-7.559824
1768,-7.2302127,-0.6197411,-7.449754
1769,-7.2038918,-0.56470615,-7.468897
1770,-7.0935225,-0.46630132,-7.7276206
1771,-6.9762745,-0.30119655,-8.0868435
1772,-6.8539414,-0.12622139,-8.25464
1773,-6.6478596,0.13010973,-8.575577
1774,-6.4348984,0.42951167,-8.8701935
1775,-6.2455664,0.602094,-9.037991
1776,-6.128019,0.6786643,-9.102596
1777,-6.013163,0.6308079,-9.078669
1778,-5.879165,0.52283174,-9.052347
1779,-5.8334026,0.15882361,-9.095418
1780,-5.857331,-0.23389842,-9.119347
1781,-5.869594,-0.5383851,-9.191131
1782,-5.9413786,-0.6723832,-9.253643
1783,-6.04427,-0.6867401,-9.1719885
1784,-6.111269,-0.4447659,-8.800801
1785,-6.183353,-0.21954148,-8.630612
1786,-6.2862444,0.058325052,-8.487042
1787,-6.3197436,0.10857433,-8.563613
1788,-6.341279,0.16360925,-8.7673025
1789,-6.2312093,0.24017957,-9.215059
1790,-5.9748783,0.3912265,-9.859626
1791,-5.7113686,0.5709873,-10.283454
1792,-5.4574304,0.65952176,-10.554143
1793,-5.4023952,0.75523466,-10.662119
1794,-5.4143596,0.74566334,-10.542178
1795,-5.6180487,0.6523433,-10.156635
1796,-5.9318075,0.465404,-9.6631155
1797,-6.2431736,0.30029923,-9.354142
1798,-6.611967,0.21385853,-9.069097
1799,-6.8228345,0.15403795,-9.023633
1800,-6.9786673,0.26171497,-9.325428
1801,-6.9523463,0.4031906,-9.54826
1802,-6.815656,0.57816577,-9.950553
1803,-6.686444,0.8030911,-10.381859
1804,-6.626324,0.89431745,-10.420144
1805,-6.6239314,1.1195419,-10.527822
1806,-6.7319074,1.157827,-10.5685
1807,-6.8108706,1.1769696,-10.281061
1808,-6.841977,1.2367902,-10.043873
1809,-6.849156,1.2104691,-9.744472
1810,-6.777371,1.1410773,-9.277572
1811,-6.559325,0.8321041,-8.695218
1812,-6.3915286,0.5805586,-8.618649
1813,-6.259923,0.2832504,-8.496614
1814,-5.895915,-0.109471634,-8.460722
1815,-5.677869,-0.28205398,-8.604291
1816,-5.4143596,-0.46151567,-8.968299
1817,-5.2848477,-0.50458646,-9.090632
1818,-5.1053863,-0.4639085,-9.195916
1819,-4.985446,-0.33230326,-9.231809
1820,-4.9088755,-0.12861422,-9.349357
1821,-4.918447,0.16600206,-9.1719885
1822,-5.1053863,0.25932217,-8.953942
1823,-5.3330035,0.24017957,-8.625827
1824,-5.6970115,0.118145615,-8.146664
1825,-5.938986,-0.032901313,-7.816155
1826,-6.1208405,-0.1692922,-7.739585
1827,-6.1642103,-0.1788635,-7.751549
1828,-6.1208405,-0.20518455,-7.861619
1829,-6.0251274,-0.11425728,-8.192427
1830,-5.838188,0.03918247,-8.601898
1831,-5.730511,0.051146585,-8.9013
1832,-5.5579286,0.04875376,-9.1719885
1833,-5.560322,0.03678965,-9.162417
1834,-5.6276197,-0.08554341,-8.76491
1835,-5.8501525,-0.18364914,-8.36471
1836,-5.8672013,-0.19561325,-8.309675
1837,-6.0394845,-0.2748755,-7.8257265
1838,-6.1160545,-0.2533401,-7.655836
1839,-6.111269,-0.32512477,-7.4066834
1840,-5.922236,-0.31076783,-7.4904323
1841,-5.7687964,-0.41844487,-7.6797643
1842,-5.7113686,-0.69152576,-7.763513
1843,-5.5794644,-0.91435736,-7.85444
1844,-5.3904314,-1.1036894,-7.88794
1845,-5.3306108,-1.2640085,-7.8520474
1846,-5.256134,-1.3648062,-7.732406
1847,-5.2130632,-1.4270196,-7.6917286
1848,-5.2106705,-1.4509479,-7.7036924
1849,-5.172385,-1.4605191,-7.68455
1850,-5.165207,-1.3480564,-7.8592257
1851,-5.1053863,-1.1730813,-8.1682
1852,-5.1053863,-1.0268201,-8.429316
1853,-5.246563,-0.84735835,-8.752945
1854,-5.4813585,-0.75613195,-8.819944
1855,-5.7257257,-0.72263247,-8.939586
1856,-5.9988065,-0.74416786,-8.85823
1857,-6.1857457,-0.80189466,-8.819944
1858,-6.381957,-0.84735835,-8.65454
1859,-6.5641108,-0.9526425,-8.68804
1860,-6.693622,-1.0869397,-8.729017
1861,-6.760621,-1.1276177,-8.796016
1862,-6.7797637,-1.1491531,-8.815159
1863,-6.8132634,-1.1563315,-8.82473
1864,-6.8276205,-1.230509,-8.781659
1865,-6.8659053,-1.3743775,-8.68804
1866,-6.9355965,-1.4844474,-8.637791
1867,-6.966703,-1.4940187,-8.5372925
1868,-6.925726,-1.462912,-8.280961
1869,-6.832406,-1.4365909,-8.144271
1870,-6.5688963,-1.3313067,-7.8664045
1871,-6.2144594,-1.2999009,-7.7036924
1872,-6.020342,-1.4413766,-7.6773715
1873,-5.7544394,-1.5972091,-7.5047894
1874,-5.4957156,-1.774278,-7.339385
1875,-5.308776,-1.8870398,-7.320243
1876,-5.1341,-1.9827527,-7.138388
1877,-4.961518,-1.9707886,-7.0208406
1878,-4.7578287,-1.9133608,-6.925128
1879,-4.5951166,-1.9013968,-6.855736
1880,-4.458427,-1.7838492,-6.8389864
1881,-4.4464626,-1.719243,-6.882057
1882,-4.4871407,-1.5948163,-7.059126
1883,-4.5038905,-1.4796617,-7.006484
1884,-4.518247,-1.3217354,-6.7166533
1885,-4.6788654,-1.1060823,-6.3143597
1886,-4.769793,-0.88325065,-5.9524455
1887,-4.8299127,-0.701097,-5.382355
1888,-4.851448,-0.65324056,-5.1643095
1889,-4.944768,-0.63888365,-4.510471
1890,-4.892126,-0.91196454,-4.057629
1891,-4.846662,-1.1491531,-3.9164524
1892,-4.753043,-1.4030914,-4.0121655
1893,-4.540082,-1.8293129,-4.404887
1894,-4.4464626,-2.1242282,-4.692325
1895,-4.3483567,-2.3371894,-4.874479
1896,-4.099204,-2.586342,-5.322535
1897,-3.9673,-2.5767708,-5.581259
1898,-3.8668015,-2.7996025,-6.0508504
1899,-3.871587,-2.9410782,-6.1657057
1900,-4.0178485,-3.12054,-6.3047886
1901,-4.237988,-3.2165518,-6.2925253
1902,-4.590331,-3.2763724,-6.4052873
1903,-4.851448,-3.1827533,-6.5105715
1904,-5.174778,-2.885744,-6.611369
1905,-5.4311094,-2.6174488,-6.65444
1906,-5.5244293,-2.4427729,-6.690332
1907,-5.6874404,-1.9803598,-6.5682983
1908,-5.7951174,-1.6857436,-6.450751
1909,-6.0011992,-1.4557334,-6.5201426
1910,-6.058627,-1.3528421,-6.4220366
1911,-6.224031,-1.2759727,-6.5368924
1912,-6.247959,-1.2783655,-6.582655
1913,-6.25753,-1.4246268,-6.7094746
1914,-6.233602,-1.6618153,-6.9562345
1915,-6.0801625,-1.9325033,-7.0639114
1916,-5.854938,-2.1095722,-7.262815
1917,-5.5579286,-2.184049,-7.5047894
1918,-5.272884,-2.1888344,-7.5717883
1919,-5.1293144,-2.1601207,-7.7204423
1920,-5.0790653,-2.2127628,-7.751549
1921,-5.091029,-2.0545373,-7.8352976
1922,-5.174778,-1.8221345,-8.065308
1923,-5.352146,-1.5681962,-8.178069
1924,-5.6036916,-1.1443675,-8.453544
1925,-6.04427,-0.9167502,-8.554042
1926,-6.247959,-0.7923234,-8.673683
1927,-6.693622,-0.65324056,-8.479864
1928,-6.9041905,-0.62452674,-8.268997
1929,-6.9906316,-0.60059845,-7.8592257
1930,-6.858727,-0.526421,-7.466504
1931,-6.6622167,-0.4232305,-7.0351977
1932,-6.533004,-0.31076783,-6.8868427
1933,-6.250352,-0.28923243,-6.9705915
1934,-6.0897336,-0.33230326,-7.5215387
1935,-6.02752,-0.36580276,-8.038987
1936,-5.9748783,-0.4854439,-8.604291
1937,-5.9724855,-0.53359944,-8.932407
1938,-5.8334026,-0.65324056,-9.207881
1939,-5.6539407,-0.57188463,-9.176774
1940,-5.5507503,-0.57427746,-8.949157
1941,-5.447859,-0.62931234,-8.623434
1942,-5.452645,-0.61734825,-8.520542
1943,-5.4382877,-0.6053841,-8.487042
1944,-5.435895,-0.39212382,-8.709874
1945,-5.529215,-0.116650105,-8.927621
1946,-5.692226,0.03918247,-8.980562
1947,-5.905486,0.16121642,-8.997313
1948,-6.1160545,0.23060828,-8.865408
1949,-6.3604217,0.21625134,-8.872586
1950,-6.50429,0.19950159,-8.762517
1951,-6.5904317,0.11096715,-8.683254
1952,-6.5258255,0.053539407,-8.760123
1953,-6.283851,-0.064008005,-8.997313
1954,-5.9413786,-0.037686955,-9.313464
1955,-5.716154,0.0029910284,-9.440284
1956,-5.560322,0.063110694,-9.533903
1957,-5.639584,0.15403795,-9.483355
1958,-5.7257257,0.20907287,-9.440284
1959,-5.8624153,0.27128628,-9.358928
1960,-6.0155563,0.357727,-9.253643
1961,-6.068198,0.43429732,-9.152845
1962,-5.979664,0.40558344,-9.263215
1963,-6.0155563,0.38644084,-9.279964
1964,-5.977271,0.14446667,-9.452248
1965,-5.9676995,0.051146585,-9.722936
1966,-6.029913,-0.0424726,-10.01516
1967,-6.178567,-0.008973085,-10.034302
1968,-6.466005,0.122931264,-10.000802
1969,-6.710372,0.35533416,-9.835697
1970,-6.9906316,0.56380886,-9.746864
1971,-7.186843,0.80548394,-9.713365
1972,-7.225427,0.99720883,-9.627223
1973,-7.268498,1.2918252,-9.541081
1974,-7.2397842,1.3734802,-9.366106
1975,-7.129415,1.3540385,-9.179167
1976,-6.9762745,1.0570294,-9.078669
1977,-6.8108706,0.6451648,-9.047562
1978,-6.5832534,0.34576288,-8.970692
1979,-6.2431736,0.115752794,-9.152845
1980,-6.005985,-0.032901313,-9.368499
1981,-5.625227,-0.10707881,-9.562616
1982,-5.3306108,-0.12861422,-9.691829
1983,-5.0572305,-0.047258247,-9.667901
1984,-5.038088,0.027218357,-9.53151
1985,-5.1269217,0.1468595,-9.195916
1986,-5.2633123,0.19471595,-9.037991
1987,-5.5459647,0.20428723,-8.429316
1988,-5.7257257,0.16360925,-8.103593
1989,-6.0107703,0.08943175,-7.4904323
1990,-6.056234,-0.030508488,-7.3513494
1991,-6.0418773,-0.11425728,-7.3106713
1992,-5.826224,-0.14297116,-7.4401827
1993,-5.6156554,-0.15493527,-7.7180495
1994,-5.2106705,-0.26291138,-8.00788
1995,-4.9806604,-0.38733816,-8.393424
1996,-4.82752,-0.5240282,-8.664112
1997,-4.7434716,-0.7298109,-9.093025
1998,-4.7434716,-0.8545368,-9.351749
1999,-4.7865424,-0.8258229,-9.385248
2000,-5.0476594,-0.77796644,-9.272786
