,ax,ay,az
501,-7.3713894,1.2056835,-8.371888
502,-7.496115,1.1219348,-8.383852
503,-7.7090764,1.0259227,-8.25464
504,-7.919944,0.9637093,-8.151449
505,-8.090134,0.97567344,-7.943274
506,-8.17149,0.94695956,-7.5789666
507,-8.154739,0.94695956,-7.1216383
508,-8.212168,0.9421739,-6.71426
509,-8.19781,0.93260264,-6.472286
510,-8.178668,0.8679964,-6.376573
511,-7.9893355,0.85124665,-6.383752
512,-7.850552,0.86081797,-6.556035
513,-7.7186475,0.86560357,-6.8796644
514,-7.5774713,0.7935198,-7.2269225
515,-7.385746,0.76241314,-7.4593253
516,-7.2613196,0.68105716,-7.672586
517,-7.2086773,0.6044868,-7.7276206
518,-7.2086773,0.54675996,-7.7036924
519,-7.266105,0.4989035,-7.559824
520,-7.309176,0.465404,-7.3779697
521,-7.5032935,0.47976094,-7.246065
522,-7.6396847,0.4941179,-7.073483
523,-7.9127655,0.5709873,-6.9275208
524,-8.049456,0.63798636,-6.704689
525,-8.10449,0.71694946,-6.539285
526,-7.9678,0.7217351,-6.541678
527,-7.9558363,0.5829514,-6.587441
528,-7.783553,0.39840496,-6.640083
529,-7.8290167,0.18993029,-6.853343
530,-7.745268,0.017347964,-6.88445
531,-7.670791,-0.119042926,-6.754938
532,-7.622935,-0.24376881,-6.6927247
533,-7.5750785,-0.24107689,-6.5440707
534,-7.5870423,-0.0951147,-6.5225353
535,-7.5272217,0.077467635,-6.539285
536,-7.4599237,0.30987054,-6.8365936
537,-7.383353,0.41515473,-6.8916283
538,-7.1509504,0.5084748,-7.0399833
539,-7.1413794,0.50129634,-7.073483
540,-7.0504518,0.23778675,-7.0543404
541,-7.0576305,0.055932228,-7.006484
542,-7.038488,-0.20757736,-6.8099732
543,-7.0695944,-0.37298122,-6.491429
544,-7.071987,-0.53359944,-6.2925253
545,-7.1485577,-0.6963114,-6.110671
546,-7.1389866,-0.8353942,-5.959624
547,-7.1653075,-0.9382856,-5.899803
548,-7.266105,-0.97896355,-5.899803
549,-7.2397842,-0.97178507,-5.9093747
550,-7.1629148,-0.98614204,-6.1010995
551,-7.0408807,-1.0486546,-6.1824555
552,-6.9209404,-1.0869397,-6.261419
553,-6.8874407,-1.2233306,-6.2087765
554,-6.7151575,-1.3121641,-6.120242
555,-6.7223363,-1.4365909,-6.172884
556,-6.736693,-1.5083755,-6.201598
557,-6.7845497,-1.4772689,-6.203991
558,-6.849156,-1.2831511,-5.983552
559,-6.882655,-1.1539388,-5.8710895
560,-6.885048,-0.9502497,-5.6650076
561,-6.901798,-0.7704889,-5.4373903
562,-6.908976,-0.6556334,-5.226523
563,-6.858727,-0.60777694,-5.008776
564,-6.736693,-0.59342,-4.793123
565,-6.5521464,-0.69152576,-4.6779685
566,-6.298208,-0.8712866,-4.7596235
567,-5.979664,-1.0100702,-4.79073
568,-5.637191,-1.189831,-4.7955155
569,-5.3425746,-1.3432708,-4.9582276
570,-5.052445,-1.4533406,-5.0829535
571,-4.9806604,-1.4964114,-5.200202
572,-4.88734,-1.719243,-5.456533
573,-4.9399824,-1.7958134,-5.51426
574,-5.026124,-1.9420747,-5.6937213
575,-5.280062,-1.9325033,-5.7873406
576,-5.651548,-1.8125632,-5.729614
577,-5.9557357,-1.6546369,-5.4589257
578,-6.183353,-1.570589,-5.3105707
579,-6.489933,-1.4294125,-5.1475596
580,-6.832406,-1.2975081,-4.9342995
581,-7.1509504,-1.2281163,-4.8266225
582,-7.2206416,-1.2352947,-4.8194437
583,-7.213463,-1.2640085,-4.738088
584,-7.0600233,-1.3217354,-4.738088
585,-6.8108706,-1.4461622,-4.9728837
586,-6.611967,-1.4413766,-5.308178
587,-6.4923263,-1.4796617,-5.7224355
588,-6.2934227,-1.4509479,-6.031409
589,-6.142675,-1.3336995,-6.4005013
590,-5.9964137,-1.2233306,-6.728617
591,-5.9342003,-1.1395818,-6.949056
592,-5.9413786,-1.0268201,-7.0950184
593,-6.056234,-0.92632145,-6.9466634
594,-6.1618176,-0.9023932,-6.814759
595,-6.4588265,-0.811466,-6.4028945
596,-6.7343,-0.73459655,-6.0508504
597,-6.9281187,-0.63170516,-5.933303
598,-7.218249,-0.552742,-5.835197
599,-7.347461,-0.43040898,-5.873482
600,-7.515258,-0.39451665,-5.875875
601,-7.5272217,-0.48305106,-5.93091
602,-7.6133633,-0.6197411,-6.1274204
603,-7.6779695,-0.81864446,-6.4292154
604,-7.5607214,-0.9071789,-6.5536423
605,-7.450352,-0.92632145,-6.759724
606,-7.24457,-0.8042875,-6.963413
607,-7.0695944,-0.67477596,-7.085447
608,-6.9786673,-0.44955155,-7.1216383
609,-6.9041905,-0.24107689,-7.3803625
610,-7.0289164,-0.119042926,-7.559824
611,-7.146165,0.014955142,-7.658229
612,-7.2038918,0.070289165,-7.7587276
613,-7.2589264,0.21385853,-7.7706914
614,-7.2708907,0.35294133,-7.655836
615,-7.309176,0.36251262,-7.478468
616,-7.3953176,0.38883367,-7.260422
617,-7.4072814,0.40558344,-7.11446
618,-7.4793653,0.39361933,-7.0950184
619,-7.589435,0.35533416,-7.2029943
620,-7.670791,0.19232312,-7.313064
621,-7.6755767,0.1683949,-7.4904323
622,-7.6277204,0.10857433,-7.62443
623,-7.5272217,0.13010973,-7.614859
624,-7.5439715,0.23778675,-7.655836
625,-7.5463643,0.40797627,-7.749156
626,-7.5990067,0.52522457,-7.861619
627,-7.6277204,0.6978069,-7.9504523
628,-7.689934,0.84167534,-8.0868435
629,-7.7620177,0.88235337,-8.1586275
630,-7.836195,0.9804591,-8.295318
631,-7.9654074,1.0211371,-8.283354
632,-8.066205,1.1769696,-8.194819
633,-8.12124,1.294218,-8.182856
634,-8.111669,1.3636098,-8.084451
635,-8.068598,1.4404793,-7.9073815
636,-7.9941216,1.4237294,-7.847262
637,-8.008778,1.2966107,-7.773084
638,-8.063812,1.076172,-7.806584
639,-8.216953,0.8895318,-7.9241314
640,-8.332108,0.78394854,-8.043773
641,-8.308179,0.81984085,-8.209176
642,-8.320144,0.87278205,-8.352746
643,-8.315358,1.0785648,-8.503793
644,-8.332108,1.3806586,-8.309675
645,-8.284251,1.5433706,-8.499007
646,-8.070991,1.7614166,-8.27139
647,-8.080562,1.7709879,-8.108378
648,-8.116454,1.7207385,-7.897511
649,-8.23131,1.7135601,-7.7347994
650,-8.358429,1.5529419,-7.5693955
651,-8.358429,1.4668003,-7.670193
652,-8.23131,1.1913266,-7.8376904
653,-8.228917,1.0283155,-7.899904
654,-8.128419,0.9182457,-8.105986
655,-8.128419,0.93260264,-8.312068
656,-7.9103727,1.1386845,-8.532506
657,-7.8146596,1.4548361,-8.827123
658,-7.812267,1.8427725,-8.906086
659,-7.637292,2.1278176,-8.717052
660,-7.6947193,2.4128625,-8.48465
661,-7.879266,2.487339,-8.1682
662,-8.13799,2.4466612,-7.8592257
663,-8.396714,2.3315065,-7.4880395
664,-8.530712,2.1278176,-7.262815
665,-8.588439,1.8212371,-7.0208406
666,-8.468498,1.5290136,-7.0758758
667,-8.2456665,1.2750753,-7.2173514
668,-7.958229,1.0546366,-7.2173514
669,-7.6683984,0.8703892,-7.277172
670,-7.433603,0.73848486,-7.3513494
671,-7.266105,0.6164509,-7.502396
672,-7.179664,0.6044868,-7.425826
673,-7.1485577,0.63798636,-7.428219
674,-7.196414,0.71216387,-7.4976106
675,-7.280462,0.82971126,-7.4593253
676,-7.325926,1.0067801,-7.4593253
677,-7.3881392,1.0833504,-7.277172
678,-7.484151,1.1219348,-7.231708
679,-7.6181493,1.1386845,-7.1096745
680,-7.7210402,1.1147562,-7.0758758
681,-7.778767,1.0235299,-6.9562345
682,-7.8577304,0.90149593,-6.8461647
683,-7.9917283,0.8150552,-6.8629146
684,-8.01117,0.76241314,-6.9849486
685,-8.126026,0.71455663,-7.008877
686,-8.166703,0.64037913,-6.896414
687,-8.166703,0.59730834,-6.8099732
688,-8.135597,0.54436713,-6.7022963
689,-8.059027,0.48215377,-6.5778694
690,-7.9797645,0.46779683,-6.4675007
691,-7.7404823,0.48454657,-6.417251
692,-7.5750785,0.47018966,-6.3957157
693,-7.4647093,0.54436713,-6.5608206
694,-7.3043904,0.5132605,-6.8653073
695,-7.2326055,0.32183465,-7.07109
696,-7.1653075,0.16600206,-7.0878396
697,-7.0695944,-0.020937199,-7.167102
698,-7.1222367,-0.19322042,-7.219744
699,-7.103094,-0.3059822,-7.1336026
700,-7.1389866,-0.40648076,-6.855736
701,-7.186843,-0.4639085,-6.647261
702,-7.115058,-0.49022955,-6.434001
703,-7.119844,-0.4854439,-6.1992054
704,-7.1365933,-0.45194438,-6.0771713
705,-7.160522,-0.4639085,-6.0604215
706,-7.143772,-0.53359944,-6.187241
707,-7.2469625,-0.55513483,-6.410073
708,-7.179664,-0.552742,-6.6257257
709,-7.251748,-0.57188463,-6.858129
710,-7.294819,-0.53599226,-6.9562345
711,-7.268498,-0.46869412,-6.9562345
712,-7.2876406,-0.4232305,-6.8075805
713,-7.301997,-0.39930227,-6.597012
714,-7.2613196,-0.34187454,-6.311967
715,-7.2996044,-0.26769704,-5.9380884
716,-7.266105,-0.25573292,-5.7200427
717,-7.234998,-0.28923243,-5.6530433
718,-7.172486,-0.37537405,-5.5573306
719,-7.1820574,-0.5383851,-5.5166526
720,-7.1222367,-0.7106683,-5.4493546
721,-6.995417,-0.9311071,-5.554938
722,-6.901798,-1.0462617,-5.5980086
723,-6.741479,-1.1946167,-5.6817575
724,-6.6071815,-1.3241283,-5.7152567
725,-6.4205413,-1.3911272,-5.6530433
726,-6.2694945,-1.3743775,-5.619544
727,-6.2024956,-1.3624134,-5.593223
728,-6.005985,-1.2520444,-5.564509
729,-5.9030933,-1.1515459,-5.480461
730,-5.799903,-0.9933205,-5.346463
731,-5.790332,-0.9837492,-5.274678
732,-5.756832,-0.9406784,-5.157131
733,-5.7281184,-0.89282197,-5.078168
734,-5.6874404,-1.0028918,-4.8768716
735,-5.6563334,-1.1659029,-4.7428737
736,-5.723333,-1.3624134,-4.7524447
737,-5.7257257,-1.4940187,-4.7548375
738,-5.790332,-1.7886349,-4.8098726
739,-5.811867,-1.8364913,-4.9728837
740,-5.9437714,-1.9875383,-5.0829535
741,-6.0753765,-1.9731814,-5.3153563
742,-6.1064835,-1.8221345,-5.494818
743,-6.1618176,-1.7120646,-5.8208404
744,-6.2527447,-1.5370895,-6.00748
745,-6.369993,-1.4246268,-6.201598
746,-6.52104,-1.3648062,-6.2255263
747,-6.6816583,-1.2999009,-6.110671
748,-6.84437,-1.2352947,-5.990731
749,-6.9305115,-1.2927225,-5.741578
750,-7.021738,-1.3456637,-5.5836515
751,-7.0839515,-1.326521,-5.5836515
752,-6.995417,-1.314557,-5.6817575
753,-7.021738,-1.2257234,-5.892625
754,-6.9738817,-1.1611172,-6.0891356
755,-6.940382,-1.0654043,-6.268597
756,-6.9185476,-0.9454641,-6.376573
757,-6.8802624,-0.90478605,-6.376573
758,-6.8706913,-0.72263247,-6.2159553
759,-6.8611197,-0.65084773,-6.041279
760,-6.8946195,-0.60059845,-5.899803
761,-7.007381,-0.61016977,-5.8974104
762,-7.076773,-0.6221339,-5.892625
763,-7.117451,-0.70348984,-6.014659
764,-7.0863442,-0.81625164,-6.2374907
765,-7.024131,-0.8665009,-6.419644
766,-6.9305115,-0.8330014,-6.556035
767,-6.8371916,-0.75613195,-6.6305118
768,-6.801299,-0.5623133,-6.580262
769,-6.791728,-0.38733816,-6.6305118
770,-6.8539414,-0.3155535,-6.556035
771,-6.9858456,-0.37537405,-6.6448684
772,-7.1078796,-0.4232305,-6.802795
773,-7.186843,-0.44955155,-6.910771
774,-7.186843,-0.40887356,-6.9394846
775,-7.201499,-0.3394817,-6.96102
776,-7.2565336,-0.26291138,-6.9825554
777,-7.2732835,-0.19082761,-7.004091
778,-7.335497,-0.09750752,-7.1072817
779,-7.5200434,-0.066400826,-7.167102
780,-7.6492558,-0.04007978,-7.2125654
781,-7.7500534,0.02213361,-7.1862445
782,-7.8840513,0.15882361,-7.2412796
783,-7.917551,0.2955136,-7.303493
784,-8.0013,0.42951167,-7.3417783
785,-8.0013,0.6906284,-7.4186473
786,-8.015956,0.846461,-7.5000033
787,-7.943872,1.0187442,-7.476075
788,-7.793124,1.1602199,-7.3899336
789,-7.785946,1.1817553,-7.346564
790,-7.8553376,1.0929217,-7.289136
791,-7.970193,0.9732806,-7.2293153
792,-8.02792,0.8344969,-7.4473615
793,-7.9390864,0.76241314,-7.5143604
794,-7.8026958,0.68345,-7.672586
795,-7.5320077,0.7073782,-7.68455
796,-7.2613196,0.76241314,-7.665407
797,-7.1509504,0.93260264,-7.576574
798,-7.143772,0.97806627,-7.492825
799,-7.0959153,1.0689936,-7.449754
800,-7.0983086,1.1051849,-7.5646095
801,-7.1581287,1.0929217,-7.6196446
802,-7.196414,1.0689936,-7.6363945
803,-7.342675,0.9924232,-7.725228
804,-7.43121,1.061815,-7.7156568
805,-7.522436,1.1889337,-7.713264
806,-7.6588273,1.2487543,-7.641479
807,-7.8649087,1.3444673,-7.6534433
808,-8.145168,1.3734802,-7.643872
809,-8.327322,1.4117653,-7.643872
810,-8.5067835,1.375873,-7.4808607
811,-8.530712,1.3878372,-7.3585277
812,-8.550154,1.4356936,-7.2412796
813,-8.509176,1.4524434,-7.236494
814,-8.411071,1.4715859,-7.4401827
815,-8.216953,1.4859428,-7.6893353
816,-7.90798,1.6031911,-7.9911304
817,-7.745268,1.6968104,-8.065308
818,-7.582257,1.835594,-8.405388
819,-7.6181493,1.8044873,-8.39821
820,-7.6253276,1.7757735,-8.530113
821,-7.7330046,1.6295122,-8.470293
822,-7.826624,1.5146568,-8.558827
823,-7.879266,1.294218,-8.599505
824,-7.982157,1.1769696,-8.712267
825,-8.025527,1.1841481,-8.800801
826,-8.02792,1.3734802,-8.992527
827,-8.073383,1.5625132,-8.944371
828,-8.178668,1.8308084,-8.982955
829,-8.384749,2.0368903,-8.829515
830,-8.542975,2.1230319,-8.412566
831,-8.777472,2.137389,-7.9576306
832,-8.904591,2.161317,-7.5119677
833,-8.806484,2.1541386,-7.1599236
834,-8.602796,2.0919251,-7.044769
835,-8.3632145,1.9076779,-7.042376
836,-7.974979,1.6824534,-7.195816
837,-7.769196,1.564906,-7.315457
838,-7.309176,1.306182,-7.682157
839,-7.105487,1.1530414,-7.9313097
840,-6.9906316,1.0067801,-7.9504523
841,-6.901798,0.73130643,-7.969595
842,-7.004988,0.52522457,-7.967202
843,-7.24457,0.33140594,-7.62443
844,-7.4599237,0.2856432,-7.5047894
845,-7.6827555,0.32422748,-7.19103
846,-7.8433733,0.5733801,-6.8892355
847,-8.025527,0.80787677,-6.690332
848,-8.099705,1.0881361,-6.647261
849,-8.133204,1.3133606,-6.6281185
850,-8.147561,1.3710874,-6.573084
851,-7.986943,1.320539,-6.573084
852,-7.90798,1.1937194,-6.63769
853,-7.656434,0.8919246,-6.937092
854,-7.4096746,0.6978069,-7.0471616
855,-7.186843,0.49172506,-7.1096745
856,-7.007381,0.2856432,-7.147959
857,-6.9281187,0.12053844,-7.179066
858,-6.8204417,0.04636094,-7.289136
859,-6.885048,-0.04965107,-7.4306116
860,-6.925726,-0.064008005,-7.4449687
861,-7.071987,0.03678965,-7.356135
862,-7.218249,0.070289165,-7.2580295
863,-7.2589264,0.24735804,-7.1862445
864,-7.2876406,0.2955136,-7.0926256
865,-7.440781,0.42951167,-6.9562345
866,-7.5463643,0.40558344,-6.9275208
867,-7.6492558,0.35533416,-6.9131637
868,-7.7356963,0.317049,-6.9299135
869,-7.742875,0.19710876,-6.975377
870,-7.673184,0.15164514,-6.949056
871,-7.6085777,0.122931264,-6.96102
872,-7.553543,0.055932228,-6.9825554
873,-7.4769726,-0.011365907,-7.0136623
874,-7.4527454,-0.037686955,-7.025626
875,-7.4527454,-0.16211374,-6.9849486
876,-7.5344005,-0.28205398,-6.762117
877,-7.498508,-0.42083767,-6.597012
878,-7.5846496,-0.5240282,-6.477072
879,-7.5439715,-0.62452674,-6.376573
880,-7.416853,-0.6987042,-6.136992
881,-7.131808,-0.7923234,-6.012266
882,-7.0145597,-0.811466,-5.9524455
883,-6.873084,-0.8569296,-5.875875
884,-6.696015,-0.89760756,-5.899803
885,-6.684051,-0.9406784,-6.0484576
886,-6.7175503,-0.9813564,-6.230312
887,-6.7295146,-0.98853487,-6.40768
888,-6.7797637,-1.0387841,-6.4363937
889,-6.7462645,-1.0677971,-6.501
890,-6.760621,-1.0749756,-6.4292154
891,-6.6768723,-1.0917253,-6.2327046
892,-6.6095743,-1.1060823,-6.072386
893,-6.4420767,-0.9933205,-5.8136616
894,-6.4444695,-0.9406784,-5.5860443
895,-6.413363,-0.86171526,-5.2962136
896,-6.302994,-0.83778703,-4.9007998
897,-6.3364935,-0.8449655,-4.7524447
898,-6.247959,-0.8641081,-4.6205406
899,-6.1474605,-0.9669995,-4.5152564
900,-5.9581285,-0.9741779,-4.4985065
901,-5.773582,-1.0725827,-4.536792
902,-5.541179,-1.0582259,-4.5535417
903,-5.433502,-1.1012967,-4.6301117
904,-5.368896,-1.1563315,-4.651647
905,-5.2848477,-1.2329018,-4.8098726
906,-5.2848477,-1.3313067,-5.0398827
907,-5.308776,-1.3743775,-5.226523
908,-5.4023952,-1.462912,-5.4038906
909,-5.4000025,-1.4916258,-5.4999027
910,-5.3904314,-1.4844474,-5.619544
911,-5.4574304,-1.4724833,-5.660222
912,-5.5675,-1.4988043,-5.7463636
913,-5.7687964,-1.5275182,-5.8854465
914,-6.003592,-1.5658033,-6.0436716
915,-6.18096,-1.6857436,-6.012266
916,-6.4013987,-1.7455641,-5.93091
917,-6.5760746,-1.7814565,-5.8686967
918,-6.7582283,-1.8293129,-5.7801623
919,-6.8946195,-1.719243,-5.799305
920,-6.96431,-1.5323038,-5.839983
921,-7.088737,-1.218545,-5.902196
922,-7.0504518,-1.0510473,-5.8878393
923,-7.0432734,-0.8353942,-5.9691954
924,-6.99781,-0.65084773,-6.0987067
925,-6.9595246,-0.526421,-6.105885
926,-6.98106,-0.45673,-6.294918
927,-7.0097737,-0.49022955,-6.5201426
928,-7.048059,-0.6867401,-6.6329045
929,-7.112665,-0.8042875,-6.6281185
930,-7.153343,-0.9693923,-6.6257257
931,-7.07438,-1.0606186,-6.529714
932,-6.995417,-1.1539388,-6.5368924
933,-6.765407,-1.1611172,-6.474679
934,-6.61436,-1.1132607,-6.5440707
935,-6.506683,-1.0869397,-6.6975107
936,-6.38435,-1.000499,-7.0351977
937,-6.3867426,-0.9454641,-7.1527452
938,-6.494719,-0.8497511,-7.3489566
939,-6.6768723,-0.71306115,-7.409076
940,-6.9738817,-0.5096712,-7.425826
941,-7.254141,-0.32033914,-7.397112
942,-7.5320077,-0.23868406,-7.2963142
943,-7.876873,-0.10468599,-7.1886373
944,-8.094919,-0.0424726,-7.128817
945,-8.293822,-0.018544376,-7.073483
946,-8.511569,0.118145615,-7.025626
947,-8.4349985,0.29282168,-7.0112696
948,-8.269895,0.46301118,-6.9969125
949,-7.8696947,0.84167534,-7.313064
950,-7.6947193,1.0163515,-7.5143604
951,-7.498508,1.2200404,-7.6893353
952,-7.390532,1.2487543,-7.763513
953,-7.4192457,1.0666007,-7.847262
954,-7.555936,0.8751749,-7.797013
955,-7.5870423,0.6044868,-7.751549
956,-7.646863,0.38165522,-7.602895
957,-7.5774713,0.30987054,-7.5813594
958,-7.4383883,0.27846473,-7.533503
959,-7.2613196,0.42711884,-7.5670023
960,-7.129415,0.52522457,-7.5263247
961,-7.0935225,0.70259255,-7.492825
962,-7.1389866,0.78873414,-7.617252
963,-7.1509504,0.887139,-7.7682986
964,-7.194021,0.9182457,-7.9408813
965,-7.172486,0.99003035,-8.04138
966,-7.18445,1.0785648,-8.084451
967,-7.254141,1.157827,-8.115557
968,-7.359425,1.2224332,-8.065308
969,-7.4072814,1.3998013,-8.074879
970,-7.4623165,1.4931214,-7.9887376
971,-7.699505,1.4691931,-7.9022965
972,-7.960622,1.4500505,-7.7443705
973,-8.279466,1.2296118,-7.614859
974,-8.65783,1.0283155,-7.557431
975,-8.791828,0.9182457,-7.5263247
976,-8.89502,0.81266236,-7.665407
977,-8.763115,0.8560323,-7.919346
978,-8.423035,1.0091729,-8.165807
979,-8.039884,1.2008978,-8.245069
980,-7.7500534,1.4548361,-8.453544
981,-7.4865437,1.634597,-8.522935
982,-7.426424,1.7709879,-8.621041
983,-7.4769726,1.7877376,-8.664112
984,-7.603792,1.7183458,-8.644969
985,-7.689934,1.7039888,-8.575577
986,-7.8170524,1.4404793,-8.542078
987,-7.8385878,1.2439687,-8.496614
988,-7.7883387,1.1291132,-8.592327
989,-7.66122,1.1697912,-8.644969
990,-7.553543,1.2487543,-8.656933
991,-7.457531,1.4189439,-8.65454
992,-7.4455667,1.524228,-8.630612
993,-7.553543,1.5888343,-8.568398
994,-7.769196,1.6896319,-8.434102
995,-7.8314095,1.6800606,-8.233105
996,-7.9223366,1.6561323,-7.952845
997,-7.9295154,1.5840486,-7.713264
998,-7.8290167,1.5026926,-7.516753
999,-7.6085777,1.3734802,-7.502396
1000,-7.426424,1.334896,-7.5382886
1001,-7.2302127,1.2559328,-7.600502
1002,-7.1270223,1.1769696,-7.708478
1003,-7.012167,1.0307083,-7.698907
1004,-7.0145597,0.9637093,-7.610073
1005,-7.021738,0.8632108,-7.4904323
1006,-7.218249,0.65712893,-7.2939215
1007,-7.2732835,0.5877371,-7.2915287
1008,-7.3977103,0.45583272,-7.265208
1009,-7.4623165,0.28803602,-7.248458
1010,-7.512865,0.29042885,-7.2101727
1011,-7.5200434,0.3074777,-7.1503525
1012,-7.5104723,0.3481557,-7.1934233
1013,-7.548757,0.465404,-7.1623163
1014,-7.443174,0.5371887,-7.138388
1015,-7.4647093,0.5587241,-7.1096745
1016,-7.400103,0.61884373,-7.260422
1017,-7.32114,0.58534425,-7.4330044
1018,-7.2469625,0.51086766,-7.54786
1019,-7.1629148,0.36011982,-7.5717883
1020,-7.1485577,0.13489537,-7.617252
1021,-7.186843,-0.111864455,-7.643872
1022,-7.143772,-0.15972091,-7.7347994
1023,-7.194021,-0.17168503,-7.643872
1024,-7.3283186,-0.14536397,-7.583752
1025,-7.4359956,0.032004002,-7.643872
1026,-7.524829,0.25214368,-7.495218
1027,-7.6492558,0.36490545,-7.4138618
1028,-7.785946,0.43669012,-7.231708
1029,-7.783553,0.5829514,-7.1766734
1030,-7.673184,0.54436713,-7.147959
1031,-7.6133633,0.37447673,-7.1599236
1032,-7.579864,0.10857433,-7.2676005
1033,-7.481758,-0.19322042,-7.3513494
1034,-7.3235326,-0.34187454,-7.45454
1035,-7.1222367,-0.46869412,-7.586145
1036,-6.99781,-0.4758726,-7.545467
1037,-6.966703,-0.38494533,-7.576574
1038,-6.96431,-0.17647067,-7.370791
1039,-7.07438,-0.037686955,-7.2269225
1040,-7.1389866,0.02961118,-6.9394846
1041,-7.349854,-0.09750752,-6.6352973
1042,-7.402496,-0.20279172,-6.3598237
1043,-7.3809605,-0.2940181,-6.3287168
1044,-7.2158556,-0.45912284,-6.378966
1045,-7.0695944,-0.51206404,-6.4292154
1046,-6.7797637,-0.7513463,-6.524928
1047,-6.686444,-0.87607217,-6.529714
1048,-6.494719,-0.9765707,-6.556035
1049,-6.365207,-1.2687942,-6.4531436
1050,-6.324529,-1.5323038,-6.39093
1051,-6.3867426,-1.5972091,-6.302396
1052,-6.439684,-1.6163517,-6.1968126
1053,-6.3867426,-1.5466608,-6.093921
1054,-6.4037914,-1.3313067,-5.8974104
1055,-6.3460646,-1.1443675,-5.7056856
1056,-6.3221364,-0.85214394,-5.5453663
1057,-6.2048883,-0.64845496,-5.4589257
1058,-6.0825553,-0.41605204,-5.169095
1059,-5.9988065,-0.33469605,-4.994419
1060,-5.8624153,-0.40887356,-4.840979
1061,-5.7281184,-0.5479564,-4.7285166
1062,-5.639584,-0.7393822,-4.5726843
1063,-5.445466,-0.9837492,-4.4817567
1064,-5.361717,-1.16351,-4.462614
1065,-5.258527,-1.3624134,-4.546363
1066,-5.265705,-1.5107684,-4.5726843
1067,-5.239384,-1.6426728,-4.651647
1068,-5.368896,-1.9277177,-4.776373
1069,-5.462216,-2.0210378,-4.8625145
1070,-5.5076795,-2.044966,-5.03749
1071,-5.723333,-2.097608,-5.2459645
1072,-5.7352967,-2.085644,-5.2794642
1073,-5.9294147,-2.097608,-5.3105707
1074,-6.0634127,-2.0712872,-5.3560343
1075,-6.247959,-2.1119652,-5.5190454
1076,-6.3676,-2.1095722,-5.5860443
1077,-6.4205413,-2.1194427,-5.743971
1078,-6.554539,-2.0018952,-5.8615184
1079,-6.5497537,-1.7886349,-6.021837
1080,-6.554539,-1.6378871,-6.041279
1081,-6.6720867,-1.4533406,-6.153742
1082,-6.700801,-1.2616158,-6.2087765
1083,-6.7989063,-1.0845468,-6.256633
1084,-6.9499536,-0.91196454,-6.146563
1085,-7.0672016,-0.7704889,-6.1513486
1086,-7.1629148,-0.5407779,-5.990731
1087,-7.170093,-0.4112664,-5.916553
1088,-7.18445,-0.34187454,-5.8854465
1089,-7.105487,-0.32273194,-6.00748
1090,-6.954739,-0.38494533,-6.0843496
1091,-6.9281187,-0.39212382,-6.1178493
1092,-6.7151575,-0.68195444,-6.3478594
1093,-6.6744795,-0.8210373,-6.443572
1094,-6.571289,-1.0677971,-6.5850477
1095,-6.477969,-1.2161521,-6.7405815
1096,-6.4085774,-1.2017952,-6.8796644
1097,-6.4013987,-1.1324034,-7.018448
1098,-6.358029,-0.9311071,-7.2843504
1099,-6.439684,-0.73459655,-7.4042907
1100,-6.535397,-0.5599205,-7.452147
1101,-6.7869425,-0.33708888,-7.617252
1102,-7.0097737,-0.16211374,-7.682157
1103,-7.242177,-0.008973085,-7.6510506
1104,-7.5320077,0.1683949,-7.5406814
1105,-7.6253276,0.29042885,-7.4641113
1106,-7.8720875,0.30508488,-7.4234333
1107,-7.9295154,0.3505485,-7.320243
1108,-7.9917283,0.37208393,-7.260422
1109,-7.9486575,0.3361916,-7.195816
1110,-7.89123,0.357727,-7.1096745
1111,-7.7739816,0.35533416,-7.0926256
1112,-7.579864,0.424726,-7.1168528
1113,-7.4216385,0.5347959,-7.3827553
1114,-7.2732835,0.68105716,-7.5885377
1115,-7.105487,0.7959126,-7.7994056
1116,-7.064809,0.82971126,-7.87119
1117,-7.0983086,0.74566334,-8.077271
1118,-7.1677003,0.7049854,-8.137093
1119,-7.1222367,0.7289136,-8.230712
1120,-7.031309,0.7265208,-8.280961
1121,-6.9041905,0.78394854,-8.352746
1122,-6.834799,0.88235337,-8.391031
1123,-6.834799,1.0163515,-8.451151
1124,-7.1078796,1.1171491,-8.33121
1125,-7.3378897,1.2655041,-8.16102
1126,-7.522436,1.375873,-7.9743805
1127,-7.745268,1.4620147,-7.713264
1128,-7.9678,1.4117653,-7.346564
1129,-8.094919,1.3540385,-7.1431737
1130,-8.147561,1.2846466,-6.9849486
1131,-8.118847,1.1338989,-6.965806
1132,-8.0614195,0.9637093,-7.0280194
1133,-7.9390864,0.8560323,-7.368099
1134,-7.687541,0.8919246,-7.8759756
1135,-7.55115,0.9804591,-8.113164
1136,-7.32114,1.1051849,-8.443972
1137,-7.3785677,1.2343974,-8.678469
1138,-7.5032935,1.2894323,-8.702396
1139,-7.589435,1.2655041,-8.668898
1140,-7.7668033,1.2559328,-8.479864
1141,-7.8050885,1.2822539,-8.340781
1142,-7.982157,1.3806586,-8.048558
1143,-7.836195,1.3926228,-7.952845
1144,-7.7162547,1.4045869,-7.780263
1145,-7.9773717,1.3301103,-7.765906
1146,-8.066205,1.2248261,-7.938488
1147,-8.037491,1.0235299,-8.2761755
1148,-7.795517,0.7049854,-8.587542
1149,-7.711469,0.47976094,-8.997313
1150,-7.673184,0.55393845,-9.332606
1151,-7.4865437,0.7935198,-9.497711
1152,-7.383353,1.1434702,-9.615258
1153,-7.306783,1.5696917,-9.627223
1154,-7.2158556,1.9794625,-9.334999
1155,-7.3713894,2.096711,-8.906086
1156,-7.606185,2.137389,-8.417352
1157,-7.778767,2.149353,-7.919346
1158,-7.8457665,2.0249262,-7.54786
1159,-7.7572317,1.7303098,-7.4330044
1160,-7.6396847,1.5170496,-7.4976106
1161,-7.3570323,1.0331012,-7.8089767
1162,-7.155736,0.8919246,-8.070093
1163,-6.8611197,0.78873414,-8.285747
1164,-6.530611,0.7432705,-8.4679
1165,-6.2527447,0.7600203,-8.48465
1166,-6.18096,0.73130643,-8.391031
1167,-6.2790656,0.85124665,-8.25464
1168,-6.5665035,0.8392825,-7.864012
1169,-6.801299,0.90149593,-7.5789666
1170,-7.2589264,0.994816,-7.4042907
1171,-7.541579,1.0785648,-7.274779
1172,-7.711469,1.1482558,-7.19103
1173,-7.824231,1.1817553,-7.1021967
1174,-7.852945,1.2152548,-7.2125654
1175,-7.7907314,1.2056835,-7.3226357
1176,-7.759625,1.1769696,-7.4473615
1177,-7.6588273,1.0163515,-7.550253
1178,-7.6109705,0.92303133,-7.600502
1179,-7.5774713,0.82971126,-7.6196446
1180,-7.6109705,0.7049854,-7.6869426
1181,-7.5463643,0.45822555,-7.5622168
1182,-7.47458,0.29282168,-7.519146
1183,-7.3881392,0.24017957,-7.502396
1184,-7.3235326,0.08225328,-7.641479
1185,-7.280462,0.017347964,-7.655836
1186,-7.280462,-0.0017946169,-7.6340017
1187,-7.2493553,-0.030508488,-7.586145
1188,-7.2158556,0.032004002,-7.4473615
1189,-7.2613196,0.10139586,-7.286743
1190,-7.2756763,0.11096715,-7.1096745
1191,-7.278069,0.058325052,-7.0375905
1192,-7.294819,-0.05922236,-7.0758758
1193,-7.2996044,-0.0735793,-7.248458
1194,-7.2469625,-0.061615184,-7.3585277
1195,-7.2397842,-0.044865426,-7.600502
1196,-7.225427,-0.068793654,-7.6534433
1197,-7.309176,-0.20518455,-7.576574
1198,-7.373782,-0.24376881,-7.5717883
1199,-7.440781,-0.43040898,-7.3779697
1200,-7.515258,-0.44715872,-7.0806613
1201,-7.637292,-0.5910272,-6.7094746
1202,-7.656434,-0.6412765,-6.599405
1203,-7.64447,-0.6221339,-6.326324
1204,-7.563114,-0.62452674,-6.0364933
1205,-7.5176506,-0.6891329,-5.9356956
1206,-7.3522468,-0.74416786,-5.933303
1207,-7.2708907,-0.66999036,-5.9955163
1208,-6.942775,-0.62931234,-6.3622165
1209,-6.710372,-0.5455636,-6.4818573
1210,-6.4325056,-0.5766702,-6.541678
1211,-6.324529,-0.7298109,-6.6448684
1212,-6.2455664,-0.8497511,-6.529714
1213,-6.3508506,-1.1084751,-6.2877398
1214,-6.4683976,-1.2616158,-6.079564
1215,-6.5425754,-1.3360924,-6.0436716
1216,-6.5688963,-1.4820545,-5.799305
1217,-6.61436,-1.4868401,-5.712864
1218,-6.604789,-1.4461622,-5.5836515
1219,-6.6167526,-1.3217354,-5.4684973
1220,-6.643074,-1.1276177,-5.413462
1221,-6.6816583,-0.55513483,-5.382355
1222,-6.6792655,-0.33708888,-5.3368917
1223,-6.6478596,-0.15972091,-5.281857
1224,-6.547361,0.0077766734,-5.348856
1225,-6.4612193,0.0846461,-5.2193446
1226,-6.365207,0.070289165,-5.00399
1227,-6.365207,0.058325052,-4.963312
1228,-6.0634127,-0.19322042,-4.613362
1229,-5.8767724,-0.40648076,-4.4482574
1230,-5.6443696,-0.74177504,-4.380959
1231,-5.5220366,-0.9765707,-4.4192443
1232,-5.4143596,-1.3671991,-4.5272202
1233,-5.2513485,-1.6283158,-4.692325
1234,-5.198706,-1.8559331,-4.8122654
1235,-5.1556354,-1.9181465,-4.8936214
1236,-5.0548377,-2.0210378,-5.006383
1237,-5.124529,-2.097608,-5.1762733
1238,-5.181957,-2.1337996,-5.3392844
1239,-5.1843495,-2.1047866,-5.5046883
1240,-5.158028,-2.0928226,-5.6530433
1241,-5.256134,-2.0712872,-5.8686967
1242,-5.3832526,-2.0952153,-6.096314
1243,-5.61087,-2.1071794,-6.335895
1244,-5.8911295,-2.0880368,-6.524928
1245,-6.1040907,-2.0377877,-6.6735826
1246,-6.343672,-1.8245273,-6.788438
1247,-6.3915286,-1.6953149,-6.9155564
1248,-6.544968,-1.3767704,-6.853343
1249,-6.765407,-0.9382856,-6.9801626
1250,-6.9595246,-0.63170516,-6.963413
1251,-7.2062845,-0.32033914,-6.829116
1252,-7.4359956,-0.17407785,-6.7645097
1253,-7.6109705,-0.061615184,-6.5344996
1254,-7.974979,0.041575294,-6.136992
1255,-8.078169,-0.030508488,-5.835197
1256,-8.0013,-0.1381855,-5.5501523
1257,-7.917551,-0.29162526,-5.5716877
1258,-7.728219,-0.49022955,-5.727221
1259,-7.5009007,-0.76570326,-6.079564
1260,-7.2493553,-0.9239286,-6.5464635
1261,-6.9185476,-1.0606186,-7.19103
1262,-6.6768723,-1.0220344,-7.7204423
1263,-6.5114684,-1.0510473,-8.058129
1264,-6.4277196,-0.96460664,-8.252247
1265,-6.4827547,-0.8497511,-8.225926
1266,-6.707979,-0.634098,-8.034201
1267,-6.9738817,-0.42562333,-7.7012997
1268,-7.2206416,-0.14297116,-7.428219
1269,-7.536793,0.1061815,-7.2245297
1270,-7.6683984,0.3912265,-7.066304
1271,-7.752446,0.6260222,-6.925128
1272,-7.795517,0.80787677,-6.8461647
1273,-7.7739816,0.8991031,-6.778867
1274,-7.769196,0.9086744,-6.7262244
1275,-7.699505,0.78873414,-6.8099732
1276,-7.637292,0.6260222,-6.9131637
1277,-7.5176506,0.32183465,-7.274779
1278,-7.3689966,0.15164514,-7.602895
1279,-7.2708907,0.09421739,-7.7419777
1280,-7.1677003,0.09661021,-7.7443705
1281,-6.96431,0.18514465,-7.8759756
1282,-6.908976,0.27367908,-7.926524
1283,-6.9499536,0.4031906,-7.832905
1284,-7.0863442,0.5084748,-7.7994056
1285,-7.2732835,0.5563313,-7.722835
1286,-7.335497,0.56859446,-7.614859
1287,-7.3546395,0.7049854,-7.502396
1288,-7.416853,0.7432705,-7.409076
1289,-7.4192457,0.8847462,-7.344171
1290,-7.4072814,1.0307083,-7.4042907
1291,-7.2996044,1.0833504,-7.5047894
1292,-7.225427,1.1291132,-7.6510506
1293,-7.194021,1.1362916,-7.641479
1294,-7.201499,1.1338989,-7.813762
1295,-7.4048886,0.9708878,-7.955238
1296,-7.4647093,0.8967103,-8.055737
1297,-7.4913297,0.8102696,-8.110771
1298,-7.467401,0.7408777,-8.151449
1299,-7.515258,0.69541407,-8.003095
1300,-7.4913297,0.67387867,-7.899904
1301,-7.6420774,0.54675996,-7.8592257
1302,-7.9390864,0.29042885,-7.8520474
1303,-8.2049885,0.19710876,-7.9648094
1304,-8.454142,0.2330011,-8.228319
1305,-8.523534,0.5662017,-8.668898
1306,-8.475677,0.92542416,-9.109775
1307,-8.42782,1.3157533,-9.390035
1308,-8.3943205,1.7303098,-9.435498
1309,-8.456534,1.9914266,-9.258429
1310,-8.540583,2.1302104,-8.941978
1311,-8.530712,2.2046869,-8.640183
1312,-8.542975,2.271686,-8.357532
1313,-8.4349985,2.2381866,-8.240283
1314,-8.262417,2.2262223,-8.172985
1315,-7.9510508,2.1134605,-8.1586275
1316,-7.6133633,1.9028922,-8.283354
1317,-7.1509504,1.5672989,-8.530113
1318,-6.937989,1.334896,-8.733803
1319,-6.585646,1.0474582,-8.898908
1320,-6.50429,0.9517452,-9.006884
1321,-6.283851,0.76959157,-9.145667
1322,-6.2623158,0.75284183,-9.119347
1323,-6.3053865,0.7432705,-9.08824
1324,-6.446862,0.92303133,-8.819944
1325,-6.889834,1.2439687,-8.39821
1326,-7.2158556,1.3734802,-8.070093
1327,-7.553543,1.5266209,-7.602895
1328,-7.759625,1.5553347,-7.3657064
1329,-8.030313,1.6271194,-6.9323063
1330,-8.166703,1.5864414,-6.661618
1331,-8.056634,1.3686945,-6.5512495
1332,-8.0614195,1.3710874,-6.6185474
1333,-7.819445,1.0211371,-7.016055
1334,-7.5942206,0.90149593,-7.401898
1335,-7.3785677,0.79112697,-7.6606216
1336,-7.1342006,0.6667002,-7.8592257
1337,-6.9451675,0.46779683,-7.9022965
1338,-6.774978,0.30508488,-7.8376904
1339,-6.7701926,0.1683949,-7.713264
1340,-6.684051,0.058325052,-7.6773715
1341,-6.6984076,0.014955142,-7.610073
1342,-6.8204417,0.02961118,-7.722835
1343,-6.937989,0.12532409,-7.773084
1344,-7.0265236,0.21864417,-7.6534433
1345,-7.0504518,0.24496523,-7.6316085
1346,-7.280462,0.2856432,-7.3779697
1347,-7.3977103,0.317049,-7.2341013
1348,-7.4697943,0.3074777,-7.1072817
1349,-7.5320077,0.19950159,-7.025626
1350,-7.496115,0.1468595,-7.0208406
1351,-7.4623165,-0.044865426,-7.138388
1352,-7.440781,-0.19800608,-7.222137
1353,-7.2900333,-0.29162526,-7.339385
1354,-7.1270223,-0.39451665,-7.5957165
1355,-7.036095,-0.4639085,-7.792227
1356,-6.940382,-0.44715872,-8.027022
1357,-6.8682985,-0.44715872,-8.060522
1358,-7.0600233,-0.42083767,-7.9313097
1359,-7.172486,-0.36580276,-7.864012
1360,-7.318747,-0.22432712,-7.7156568
1361,-7.4120674,-0.10229317,-7.478468
1362,-7.443174,-0.018544376,-7.2125654
1363,-7.5607214,0.00059820566,-6.8724856
1364,-7.603792,-0.08315059,-6.65444
1365,-7.630113,-0.07836494,-6.5536423
1366,-7.6540413,-0.4543372,-6.220741
1367,-7.5607214,-0.7609176,-6.136992
1368,-7.47458,-0.92632145,-6.1010995
1369,-7.0193453,-1.1515459,-6.1322064
1370,-6.7845497,-1.3022938,-6.093921
1371,-6.372386,-1.474876,-6.072386
1372,-5.979664,-1.5083755,-6.170491
1373,-5.6946187,-1.5370895,-6.3550377
1374,-5.354539,-1.585245,-6.48425
1375,-5.3159547,-1.5203397,-6.529714
1376,-5.246563,-1.5131612,-6.5946193
1377,-5.38086,-1.4700904,-6.6017976
1378,-5.5890355,-1.3456637,-6.448358
1379,-5.9964137,-1.1970096,-6.122635
1380,-6.283851,-1.1874382,-5.93091
1381,-6.561718,-1.2161521,-5.8136616
1382,-6.6335025,-1.244866,-5.768198
1383,-6.889834,-1.3022938,-5.768198
1384,-6.937989,-1.230509,-5.7463636
1385,-6.940382,-1.1443675,-5.6650076
1386,-6.9281187,-0.94307125,-5.5501523
1387,-6.8252273,-0.69152576,-5.317749
1388,-6.7319074,-0.51445687,-5.212166
1389,-6.619146,-0.30119655,-4.8194437
1390,-6.5114684,-0.19082761,-4.6779685
1391,-6.50429,-0.116650105,-4.476971
1392,-6.4277196,-0.04007978,-4.301996
1393,-6.3460646,-0.1692922,-4.2038903
1394,-6.1378894,-0.5021936,-4.280461
1395,-6.0394845,-0.7298109,-4.520042
1396,-5.838188,-1.1467602,-4.8361936
1397,-5.59412,-1.5681962,-5.2073803
1398,-5.2274203,-1.9205393,-5.554938
1399,-5.0165524,-2.274976,-5.8160543
1400,-4.846662,-2.5025933,-5.9261246
1401,-4.7506504,-2.766103,-6.0747786
1402,-4.6525445,-2.969792,-6.110671
1403,-4.6764727,-3.0415766,-6.220741
1404,-4.7195435,-3.1253254,-6.3717875
1405,-4.8442693,-3.0463624,-6.4005013
1406,-5.2896338,-2.7230322,-6.4028945
1407,-5.622834,-2.4284158,-6.4292154
1408,-6.0514483,-2.0114665,-6.474679
1409,-6.5234327,-1.5323038,-6.4220366
1410,-6.8252273,-1.2664014,-6.410073
1411,-7.1581287,-0.8282157,-6.297311
1412,-7.392925,-0.45673,-6.1178493
1413,-7.4647093,-0.27726832,-6.026623
1414,-7.6253276,-0.0041874396,-5.918946
1415,-7.7476606,-0.023330022,-5.6745787
1416,-7.7500534,-0.17168503,-5.6530433
1417,-7.6492558,-0.3681956,-5.851947
1418,-7.450352,-0.64606214,-6.1154566
1419,-7.2493553,-0.8880363,-6.1968126
1420,-7.0695944,-1.1228321,-6.352645
1421,-6.885048,-1.2400804,-6.5850477
1422,-6.6768723,-1.407877,-6.9323063
1423,-6.595217,-1.4820545,-7.073483
1424,-6.5162544,-1.4413766,-7.368099
1425,-6.466005,-1.3791631,-7.5933237
1426,-6.446862,-1.1515459,-7.7419777
1427,-6.4444695,-0.9239286,-7.792227
1428,-6.530611,-0.6628119,-7.8759756
1429,-6.6598234,-0.41365921,-7.6797643
1430,-6.8802624,-0.16689938,-7.6316085
1431,-7.1653075,0.070289165,-7.5119677
1432,-7.2397842,0.18753748,-7.5382886
1433,-7.47458,0.40079778,-7.3923264
1434,-7.6109705,0.6044868,-7.305886
1435,-7.6013994,0.8006983,-7.1455665
1436,-7.553543,0.90388876,-6.9801626
1437,-7.6013994,0.93738824,-6.9729843
1438,-7.64447,0.887139,-6.9035926
1439,-7.7090764,0.75523466,-6.9538417
1440,-7.7500534,0.61405814,-6.9873414
1441,-7.7404823,0.4031906,-7.099804
1442,-7.6827555,0.29042885,-7.1096745
1443,-7.390532,0.10139586,-7.3513494
1444,-7.18445,-0.01375873,-7.4712896
1445,-7.0193453,-0.08075777,-7.5789666
1446,-6.7701926,-0.0424726,-7.7036924
1447,-6.760621,0.122931264,-7.8783684
1448,-6.7295146,0.20428723,-7.9600234
1449,-6.7821565,0.5180461,-8.201998
1450,-6.873084,0.6547361,-8.33121
1451,-7.012167,0.8560323,-8.522935
1452,-7.0815587,0.9924232,-8.656933
1453,-7.172486,1.198505,-8.695218
1454,-7.347461,1.3830515,-8.644969
1455,-7.400103,1.5026926,-8.649755
1456,-7.563114,1.6968104,-8.496614
1457,-7.673184,1.7087744,-8.324032
1458,-7.8577304,1.6513467,-8.1347
1459,-8.188239,1.4859428,-7.830512
1460,-8.346464,1.320539,-7.641479
1461,-8.490034,1.1482558,-7.4712896
1462,-8.468498,1.1195419,-7.4138618
1463,-8.344071,1.0307083,-7.665407
1464,-8.243274,1.0187442,-7.9169526
1465,-8.178668,1.0594223,-8.25464
1466,-7.860123,1.1075778,-8.513364
1467,-7.5320077,1.3492528,-8.733803
1468,-7.524829,1.4093726,-8.776874
1469,-7.603792,1.4548361,-8.520542
1470,-7.809874,1.4093726,-8.261818
1471,-8.051848,1.2846466,-8.062915
1472,-8.262417,1.2080764,-7.9887376
1473,-8.298608,1.1506486,-8.060522
1474,-8.327322,1.2008978,-8.393424
1475,-8.252846,1.2200404,-8.599505
1476,-7.9893355,1.3974084,-8.968299
1477,-7.637292,1.6319051,-9.121739
1478,-7.4793653,1.7638094,-9.162417
1479,-7.402496,1.9268204,-9.081061
1480,-7.450352,2.0081763,-8.839087
1481,-7.515258,2.0153549,-8.752945
1482,-7.615756,1.9100707,-8.34796
1483,-7.6516485,1.837987,-8.074879
1484,-7.646863,1.7207385,-7.7204423
1485,-7.6277204,1.605584,-7.6292157
1486,-7.55115,1.4668003,-7.6678
1487,-7.4865437,1.2080764,-7.696514
1488,-7.43121,1.1291132,-7.670193
1489,-7.3043904,0.98524475,-7.682157
1490,-7.292426,0.9876375,-7.617252
1491,-7.0002027,0.82971126,-7.4593253
1492,-6.98106,0.75523466,-7.394719
1493,-7.153343,0.59730834,-7.305886
1494,-7.292426,0.5300102,-7.222137
1495,-7.318747,0.45822555,-7.236494
1496,-7.2469625,0.6236294,-7.3178496
1497,-7.1820574,0.76241314,-7.286743
1498,-7.031309,1.1171491,-7.399505
1499,-6.908976,1.2726825,-7.495218
1500,-6.7701926,1.2726825,-7.6390862
1501,-6.8204417,1.172184,-7.737192
1502,-6.8204417,1.0378869,-7.8089767
1503,-6.8539414,0.9421739,-7.8257265
1504,-6.9762745,0.62123656,-7.7180495
1505,-7.079166,0.48933223,-7.516753
1506,-7.1246295,0.39601216,-7.3489566
1507,-7.2206416,0.26650062,-7.2580295
1508,-7.306783,0.14925231,-7.2006016
1509,-7.4240313,0.08225328,-7.1862445
1510,-7.5176506,0.09182457,-7.2556367
1511,-7.5750785,0.16121642,-7.124031
1512,-7.637292,0.14446667,-7.018448
1513,-7.663613,0.13489537,-7.025626
1514,-7.6683984,0.22582264,-7.0543404
1515,-7.64447,0.25692934,-7.2101727
1516,-7.6420774,0.22582264,-7.2699933
1517,-7.5439715,0.24017957,-7.181459
1518,-7.5320077,0.22582264,-7.274779
1519,-7.467401,0.19950159,-7.289136
1520,-7.4647093,0.14446667,-7.289136
1521,-7.4120674,0.10378868,-7.4330044
1522,-7.390532,0.072681986,-7.535896
1523,-7.3235326,-0.023330022,-7.535896
1524,-7.4216385,-0.17407785,-7.385148
1525,-7.43121,-0.24376881,-7.2006016
1526,-7.515258,-0.3681956,-6.96102
1527,-7.524829,-0.45673,-6.7908306
1528,-7.5678997,-0.48305106,-6.649654
1529,-7.5032935,-0.552742,-6.515357
1530,-7.481758,-0.63170516,-6.4028945
1531,-7.416853,-0.6029913,-6.367002
1532,-7.2302127,-0.66999036,-6.25424
1533,-7.103094,-0.72502524,-6.2518473
1534,-7.024131,-0.77796644,-6.39093
1535,-6.8635125,-0.86171526,-6.3741803
1536,-6.6622167,-1.0582259,-6.4363937
1537,-6.544968,-1.2664014,-6.5922265
1538,-6.5569324,-1.3094722,-6.51775
1539,-6.4683976,-1.6594225,-6.5201426
1540,-6.3915286,-1.7838492,-6.450751
1541,-6.3604217,-1.8317057,-6.4292154
1542,-6.343672,-1.7288144,-6.5440707
1543,-6.4157557,-1.5299109,-6.5081787
1544,-6.489933,-1.244866,-6.3741803
1545,-6.5258255,-1.0534402,-6.278168
1546,-6.6744795,-0.6053841,-5.7224355
1547,-6.696015,-0.45673,-5.423033
1548,-6.765407,-0.33230326,-5.1403813
1549,-6.7893353,-0.28923243,-4.570291
1550,-6.75105,-0.32512477,-4.465007
1551,-6.6478596,-0.4854439,-4.412066
1552,-6.4923263,-0.60777694,-4.4168515
1553,-6.3053865,-0.86889374,-4.551149
1554,-6.1040907,-1.0845468,-4.6396832
1555,-5.7759748,-1.2855439,-4.7045884
1556,-5.512465,-1.4198412,-4.6731825
1557,-5.512465,-1.4198412,-4.6731825
1558,-5.270491,-1.6594225,-4.65404
1559,-5.2848477,-1.7551354,-4.658826
1560,-5.246563,-1.9301106,-4.814658
1561,-5.181957,-1.9707886,-5.171488
1562,-5.1293144,-1.977967,-5.4517474
1563,-5.1532426,-2.0138593,-5.7152567
1564,-5.1364927,-2.1601207,-5.890232
1565,-5.2537413,-2.315654,-6.1968126
1566,-5.407181,-2.4523442,-6.3071814
1567,-5.486144,-2.548057,-6.335895
1568,-5.692226,-2.4188447,-6.282954
1569,-5.879165,-2.289333,-6.1848483
1570,-6.2407804,-2.0377877,-6.146563
1571,-6.791728,-1.6689938,-6.1154566
1572,-7.3139615,-1.4318053,-6.0290155
1573,-7.6827555,-1.0845468,-6.0436716
1574,-7.9510508,-0.72023964,-5.873482
1575,-8.006385,-0.39451665,-5.669793
1576,-7.862516,-0.13339986,-5.633901
1577,-7.6133633,0.03918247,-5.6123657
1578,-7.3809605,0.0846461,-5.636294
1579,-6.9499536,-0.035294134,-6.170491
1580,-6.696015,-0.17168503,-6.434001
1581,-6.430113,-0.39930227,-6.9035926
1582,-6.3795643,-0.497408,-6.9275208
1583,-6.0370917,-0.78035927,-7.315457
1584,-5.910272,-1.0893325,-7.5239315
1585,-5.8429737,-1.2209377,-7.519146
1586,-5.907879,-1.2664014,-7.4736824
1587,-6.1064835,-1.1946167,-7.409076
1588,-6.4755764,-1.0172487,-7.246065
1589,-6.7390857,-0.66759753,-7.219744
1590,-7.0672016,-0.389731,-7.1431737
1591,-7.280462,-0.11425728,-7.0950184
1592,-7.4769726,0.067896344,-7.030412
1593,-7.778767,0.24975087,-6.9394846
1594,-7.9941216,0.4319045,-6.860522
1595,-8.070991,0.45583272,-6.6305118
1596,-7.9797645,0.42711884,-6.5057855
1597,-7.934301,0.2641078,-6.457929
1598,-7.785946,0.043968115,-6.4411793
1599,-7.646863,-0.22911277,-6.65444
1600,-7.4048886,-0.23150559,-7.008877
1601,-7.09113,-0.044865426,-7.339385
1602,-6.8395844,0.28085756,-7.5981092
1603,-6.6358953,0.50368917,-7.7754774
1604,-6.5138617,0.8775677,-7.8352976
1605,-6.6406813,0.9708878,-7.7156568
1606,-6.841977,0.9206385,-7.428219
1607,-7.196414,0.7815557,-6.9825554
1608,-7.5009007,0.56111693,-6.661618
1609,-7.7380896,0.40079778,-6.5632133
1610,-7.8026958,0.30508488,-6.759724
1611,-7.745268,0.32422748,-7.0280194
1612,-7.508079,0.38404804,-7.4712896
1613,-7.335497,0.50368917,-7.7443705
1614,-7.1413794,0.71216387,-7.986345
1615,-7.32114,0.9349955,-8.074879
1616,-7.5870423,1.1099706,-8.113164
1617,-7.821838,1.1745768,-8.084451
1618,-8.042277,1.2750753,-8.00788
1619,-8.3345,1.334896,-7.899904
1620,-8.415856,1.3277174,-7.880761
1621,-8.415856,1.3686945,-7.7946196
1622,-8.193025,1.4045869,-7.8257265
1623,-7.9462647,1.4668003,-7.9624166
1624,-7.6277204,1.4261223,-8.017451
1625,-7.484151,1.361217,-7.9983087
1626,-7.4647093,1.2367902,-7.897511
1627,-7.5583286,1.1171491,-7.8783684
1628,-7.7234335,0.8895318,-7.8831544
1629,-7.8649087,0.73848486,-7.9408813
1630,-7.9678,0.69541407,-8.02463
1631,-7.9965143,0.7360921,-8.1012
1632,-8.020741,0.76959157,-8.209176
1633,-8.085348,0.8679964,-8.412566
1634,-8.257631,1.1889337,-8.573184
1635,-8.348857,1.5050855,-8.680861
1636,-8.377571,1.7877376,-8.762517
1637,-8.415856,1.9770697,-8.867801
1638,-8.49482,2.067997,-8.836694
1639,-8.509176,2.0871396,-8.721839
1640,-8.653045,1.9292133,-8.673683
1641,-8.755937,1.919642,-8.7266245
1642,-8.734401,2.0416758,-8.903693
1643,-8.609974,2.2334008,-8.908479
1644,-8.365607,2.3578277,-8.70479
1645,-8.19781,2.2884357,-8.290532
1646,-8.054241,2.079961,-7.9648094
1647,-7.931908,1.8786649,-7.7611203
1648,-7.754839,1.6393826,-7.626823
1649,-7.563114,1.3998013,-7.658229
1650,-7.254141,1.2702898,-7.806584
1651,-7.0408807,1.2056835,-7.8759756
1652,-6.942775,1.1697912,-7.993523
1653,-6.8706913,1.1602199,-8.062915
1654,-6.849156,1.0378869,-8.053344
1655,-6.8682985,0.994816,-7.9600234
1656,-6.9619174,0.8847462,-7.7036924
1657,-7.012167,0.9062816,-7.4904323
1658,-7.268498,0.7815557,-7.13121
1659,-7.484151,0.7265208,-6.9012
1660,-7.5990067,0.7408777,-6.7405815
1661,-7.5439715,0.7719844,-6.695118
1662,-7.3402824,0.7743772,-6.7262244
1663,-7.2302127,0.8321041,-6.8748784
1664,-7.0959153,0.90149593,-7.025626
1665,-6.99781,0.86560357,-7.1336026
1666,-7.055238,0.7719844,-7.289136
1667,-7.071987,0.6451648,-7.4856467
1668,-7.079166,0.61405814,-7.507182
1669,-7.194021,0.44626144,-7.732406
1670,-7.194021,0.3290131,-7.713264
1671,-7.2637124,0.1683949,-7.4904323
1672,-7.3163543,0.118145615,-7.313064
1673,-7.392925,0.067896344,-7.097411
1674,-7.5774713,0.12053844,-6.8365936
1675,-7.670791,0.24735804,-6.6759753
1676,-7.759625,0.32662028,-6.6568327
1677,-7.941479,0.43429732,-6.678368
1678,-7.98455,0.6044868,-6.7405815
1679,-7.943872,0.6643074,-6.745367
1680,-7.8026958,0.68345,-6.771688
1681,-7.7162547,0.57577294,-6.968199
1682,-7.536793,0.47258246,-7.205387
1683,-7.4120674,0.40797627,-7.2676005
1684,-7.24457,0.31465617,-7.4162545
1685,-7.0002027,0.25932217,-7.356135
1686,-6.923333,0.14925231,-7.4042907
1687,-7.055238,-0.025722843,-7.346564
1688,-7.09113,-0.11425728,-7.2556367
1689,-7.383353,-0.39690945,-6.9035926
1690,-7.541579,-0.57188463,-6.8243303
1691,-7.7330046,-0.72023964,-6.6017976
1692,-7.8050885,-0.7465607,-6.5440707
1693,-7.7668033,-0.84735835,-6.532107
1694,-7.8074813,-0.89282197,-6.477072
1695,-7.7404823,-0.9287143,-6.51775
1696,-7.7356963,-0.9909277,-6.5440707
1697,-7.699505,-0.98614204,-6.570691
1698,-7.591828,-0.9669995,-6.6161547
1699,-7.522436,-0.8593224,-6.6041903
1700,-7.426424,-0.7585248,-6.5225353
1701,-7.333104,-0.67477596,-6.5898337
1702,-7.282855,-0.6364908,-6.6329045
1703,-7.266105,-0.7369894,-6.7238317
1704,-7.201499,-0.71306115,-6.6687965
1705,-7.172486,-0.74416786,-6.4675007
1706,-7.1365933,-0.77796644,-6.244669
1707,-7.0935225,-0.7851449,-5.971588
1708,-7.045666,-0.8641081,-5.669793
1709,-6.901798,-0.8808578,-5.415855
1710,-6.628717,-0.88325065,-5.3847485
1711,-6.588039,-0.9622138,-5.4876394
1712,-6.4181485,-1.0387841,-5.5190454
1713,-6.3747787,-1.1515459,-5.602794
1714,-6.27428,-1.1515459,-5.636294
1715,-6.224031,-1.16351,-5.6482577
1716,-6.154639,-1.0387841,-5.6554365
1717,-6.0323057,-0.89760756,-5.5310097
1718,-5.9437714,-0.6987042,-5.365606
1719,-5.8046885,-0.49980083,-5.1403813
1720,-5.668298,-0.4112664,-4.936692
1721,-5.560322,-0.32991043,-4.570291
1722,-5.5627146,-0.39212382,-4.275675
1723,-5.5220366,-0.5288138,-4.127021
1724,-5.519644,-0.6939186,-3.949952
1725,-5.555536,-0.83778703,-4.016951
1726,-5.785546,-1.4318053,-4.3259244
1727,-5.9174504,-1.6402799,-4.5152564
1728,-5.9342003,-1.9277177,-4.8026943
1729,-5.9270215,-2.1119652,-5.0135617
1730,-5.907879,-2.2271197,-5.154738
1731,-5.9294147,-2.3132613,-5.322535
1732,-5.8453665,-2.332404,-5.5501523
1733,-5.8743796,-2.2606192,-5.7559347
1734,-5.912665,-2.1119652,-5.9500527
1735,-5.946164,-1.9707886,-5.971588
1736,-6.005985,-1.7862421,-5.9859447
1737,-6.159425,-1.5729818,-5.9787664
1738,-6.3604217,-1.4365909,-6.0290155
1739,-6.530611,-1.2807583,-6.1585274
1740,-6.5928245,-1.2496517,-6.1274204
1741,-6.6335025,-1.1587243,-6.227919
1742,-6.727122,-1.1491531,-6.203991
1743,-6.873084,-1.0654043,-6.3311095
1744,-6.96431,-1.0339985,-6.3981085
1745,-7.0983086,-0.9765707,-6.448358
1746,-7.3307114,-0.86171526,-6.2159553
1747,-7.440781,-0.8066803,-6.2494545
1748,-7.6851482,-0.74895346,-6.153742
1749,-7.7404823,-0.7465607,-6.1992054
1750,-7.826624,-0.78753775,-6.062814
1751,-7.742875,-0.81625164,-6.065207
1752,-7.4527454,-0.7752745,-6.062814
1753,-7.201499,-0.8138588,-6.1034923
1754,-6.995417,-0.811466,-6.3311095
1755,-6.908976,-0.8425727,-6.678368
1756,-6.9065833,-0.89760756,-7.083054
1757,-7.064809,-0.92153585,-7.3779697
1758,-7.0097737,-0.84017986,-7.54786
1759,-7.0025954,-0.6867401,-7.6124663
1760,-6.9930243,-0.5766702,-7.5670023
1761,-6.99781,-0.34666017,-7.320243
1762,-7.1078796,-0.15732808,-6.9442706
1763,-7.1581287,0.0029910284,-6.745367
1764,-7.242177,0.12532409,-6.759724
1765,-7.2589264,0.18753748,-6.7764735
1766,-7.4769726,0.21625134,-6.9466634
1767,-7.6660056,0.13250256,-7.112067
1768,-7.6683984,0.08943175,-7.2173514
1769,-7.6396847,-0.0065802624,-7.2269225
1770,-7.6085777,-0.109471634,-7.1192455
1771,-7.5344005,-0.066400826,-7.1359954
1772,-7.4793653,-0.11425728,-7.099804
1773,-7.342675,-0.111864455,-7.1862445
1774,-6.8467627,0.15403795,-7.397112
1775,-6.6095743,0.357727,-7.6606216
1776,-6.4612193,0.53240305,-7.9169526
1777,-6.4588265,0.7073782,-8.046165
1778,-6.6071815,0.81984085,-8.000702
1779,-6.7127647,0.94695956,-8.046165
1780,-6.806085,1.0402796,-8.000702
1781,-7.119844,1.1817553,-7.995916
1782,-7.1772714,1.2032907,-7.9767733
1783,-7.5439715,1.186541,-7.6220374
1784,-7.8385878,1.1003993,-7.4641113
1785,-8.147561,1.0115658,-7.2939215
1786,-8.420642,0.994816,-7.19103
1787,-8.602796,0.96849495,-7.07109
1788,-8.626724,1.0474582,-7.0639114
1789,-8.5525465,1.0953146,-7.1742806
1790,-8.399107,1.212862,-7.368099
1791,-8.19781,1.2032907,-7.626823
1792,-8.02792,1.2655041,-8.060522
1793,-7.9366937,1.2224332,-8.175676
1794,-7.7330046,1.3181462,-8.568398
1795,-7.5726852,1.3516457,-8.82473
1796,-7.508079,1.39023,-8.985348
1797,-7.496115,1.3782659,-8.973084
1798,-7.5750785,1.3253247,-8.990134
1799,-7.6420774,1.2511472,-8.939586
1800,-7.632506,1.2535399,-9.08824
1801,-7.555936,1.3444673,-9.167203
1802,-7.5726852,1.3229318,-9.14806
1803,-7.6348987,1.2726825,-9.140882
1804,-7.778767,1.2248261,-9.047562
1805,-7.9534435,1.2248261,-9.061918
1806,-8.042277,1.2439687,-9.030811
1807,-8.025527,1.5816557,-9.08824
1808,-8.130812,1.8140587,-8.922835
1809,-8.2145605,2.056033,-8.633005
1810,-8.224132,2.149353,-8.233105
1811,-8.188239,2.1517458,-7.986345
1812,-7.972586,2.1038892,-7.7706914
1813,-7.754839,1.9076779,-7.5670023
1814,-7.5702925,1.5098711,-7.626823
1815,-7.4120674,1.2248261,-7.856833
1816,-7.1820574,0.8919246,-8.105986
1817,-7.0025954,0.6786643,-8.242676
1818,-6.875477,0.46779683,-8.328817
1819,-6.801299,0.46779683,-8.393424
1820,-6.7678,0.5587241,-8.453544
1821,-6.777371,0.68823564,-8.359924
1822,-6.9595246,0.8246265,-8.178069
1823,-6.9930243,0.8679964,-8.094022
1824,-7.484151,0.9828519,-7.476075
1825,-7.711469,0.9421739,-7.042376
1826,-7.860123,0.8991031,-6.798009
1827,-7.974979,0.83688974,-6.4938216
1828,-8.042277,0.7600203,-6.393323
1829,-7.9893355,0.6044868,-6.524928
1830,-7.8649087,0.5180461,-6.680761
1831,-7.6827555,0.4031906,-6.9012
1832,-7.488937,0.357727,-7.124031
1833,-7.1748786,0.24735804,-7.411469
1834,-6.9786673,0.10378868,-7.614859
1835,-6.753443,0.055932228,-7.77787
1836,-6.736693,0.07507481,-7.873583
1837,-6.6888366,0.13010973,-7.832905
1838,-6.8635125,0.23539393,-7.600502
1839,-6.9355965,0.37208393,-7.4593253
1840,-7.153343,0.56111693,-7.167102
1841,-7.3809605,0.7408777,-7.126424
1842,-7.5056863,0.8536395,-7.0399833
1843,-7.488937,0.7743772,-7.025626
1844,-7.498508,0.63798636,-6.965806
1845,-7.3977103,0.32183465,-6.992127
1846,-7.4192457,0.10378868,-7.0351977
1847,-7.455138,-0.15254244,-7.155138
1848,-7.400103,-0.31316066,-7.344171
1849,-7.3785677,-0.35623148,-7.590931
1850,-7.2086773,-0.3610171,-7.7036924
1851,-7.079166,-0.2868396,-7.8233337
1852,-7.0145597,-0.08075777,-7.732406
1853,-7.079166,0.10857433,-7.476075
1854,-7.2206416,0.19232312,-7.2125654
1855,-7.4359956,0.1683949,-7.044769
1856,-7.5846496,0.043968115,-6.8051877
1857,-7.7210402,-0.066400826,-6.587441
1858,-7.6396847,-0.10707881,-6.4818573
1859,-7.41446,-0.20518455,-6.5057855
1860,-7.194021,-0.32991043,-6.7764735
1861,-6.937989,-0.39930227,-6.9562345
1862,-6.7701926,-0.48065826,-7.1862445
1863,-6.6649084,-0.6436693,-7.303493
1864,-6.684051,-0.92153585,-7.2963142
1865,-6.7893353,-1.082154,-7.279565
1866,-6.858727,-1.2281163,-7.19103
1867,-7.0600233,-1.2807583,-7.1048884
1868,-7.021738,-1.3217354,-7.044769
1869,-7.2732835,-1.2640085,-6.7118673
1870,-7.3235326,-1.1706885,-6.5105715
1871,-7.309176,-0.95742816,-6.343074
1872,-7.242177,-0.73459655,-6.2327046
1873,-7.0839515,-0.48783672,-6.285347
1874,-6.8371916,-0.38733816,-6.2494545
1875,-6.710372,-0.39690945,-6.153742
1876,-6.6215386,-0.4639085,-6.201598
1877,-6.619146,-0.552742,-6.175277
1878,-6.585646,-0.6556334,-6.294918
1879,-6.5521464,-0.81625164,-6.180063
1880,-6.4588265,-1.0797613,-6.113064
1881,-6.3771715,-1.2687942,-6.038886
1882,-6.2551374,-1.4581263,-5.8974104
1883,-6.084948,-1.5275182,-5.796912
1884,-5.8429737,-1.5155541,-5.6506505
1885,-5.5675,-1.4772689,-5.511867
1886,-5.419145,-1.3911272,-5.4924254
1887,-5.272884,-1.2616158,-5.3201423
1888,-5.1867423,-1.2161521,-5.308178
1889,-5.083851,-1.1850454,-5.2794642
1890,-5.122136,-1.2424731,-5.2962136
1891,-5.198706,-1.2951152,-5.375177
1892,-5.388038,-1.5610176,-5.430212
1893,-5.510072,-1.8293129,-5.5262237
1894,-5.581857,-2.059323,-5.6410794
1895,-5.716154,-2.3901308,-5.633901
1896,-5.7927246,-2.521736,-5.6937213
1897,-5.826224,-2.684747,-5.799305
1898,-5.879165,-2.8283165,-5.839983
1899,-5.898308,-2.7756743,-5.959624
1900,-5.83101,-2.6485555,-5.9356956
1901,-5.8597236,-2.603092,-6.081957
1902,-5.948557,-2.426023,-6.134599
1903,-6.0729837,-2.1337996,-6.460322
1904,-6.1184473,-1.9037895,-6.5632133
1905,-6.195317,-1.5466608,-6.74776
1906,-6.2264237,-1.340878,-6.704689
1907,-6.29103,-1.1252248,-6.65444
1908,-6.3628144,-1.0124631,-6.5081787
1909,-6.6071815,-0.959821,-6.256633
1910,-6.753443,-1.0148559,-6.0843496
1911,-6.897012,-1.1132607,-5.9644094
1912,-6.9858456,-1.2281163,-5.8950176
1913,-6.9930243,-1.4030914,-5.8950176
1914,-6.925726,-1.4006985,-5.973981
1915,-6.849156,-1.4198412,-6.153742
1916,-6.6335025,-1.3193426,-6.3741803
1917,-6.50429,-1.2568301,-6.477072
1918,-6.406184,-1.1682956,-6.680761
1919,-6.341279,-1.1204392,-6.8461647
1920,-6.324529,-1.0917253,-6.925128
1921,-6.3460646,-0.9622138,-6.9562345
1922,-6.5114684,-0.94307125,-6.8892355
1923,-6.696015,-0.9167502,-6.71426
1924,-6.7869425,-0.91435736,-6.6185474
1925,-6.9882383,-0.8712866,-6.498607
1926,-7.088737,-0.8712866,-6.4675007
1927,-7.153343,-0.7827521,-6.4627147
1928,-7.0935225,-0.7082755,-6.5129642
1929,-7.0289164,-0.5982057,-6.5344996
1930,-6.940382,-0.5623133,-6.6352973
1931,-6.9185476,-0.56470615,-6.870093
1932,-6.8659053,-0.5240282,-7.008877
1933,-6.841977,-0.5288138,-7.2532434
1934,-6.7989063,-0.40887356,-7.5263247
1935,-6.7821565,-0.25812575,-7.8783684
1936,-6.808478,-0.061615184,-7.986345
1937,-6.8132634,0.13010973,-8.062915
1938,-6.9906316,0.25932217,-7.979166
1939,-7.155736,0.31226337,-7.7850485
1940,-7.4048886,0.35294133,-7.5119677
1941,-7.615756,0.42711884,-7.2987075
1942,-7.713862,0.4869394,-7.265208
1943,-7.6827555,0.64277196,-7.181459
1944,-7.6348987,0.75284183,-7.272386
1945,-7.5009007,0.7791629,-7.2676005
1946,-7.342675,0.6978069,-7.3657064
1947,-7.2230344,0.5204389,-7.4856467
1948,-7.170093,0.30269206,-7.5550385
1949,-7.1078796,0.13250256,-7.5957165
1950,-6.9930243,-0.061615184,-7.5981092
1951,-6.9906316,-0.111864455,-7.6340017
1952,-6.791728,-0.13339986,-7.7012997
1953,-6.7031937,0.04636094,-7.928917
1954,-6.6239314,0.23539393,-8.1347
1955,-6.6239314,0.4103691,-8.242676
1956,-6.686444,0.5925227,-8.295318
1957,-6.8300133,0.8751749,-8.268997
1958,-7.225427,1.0091729,-8.050951
1959,-7.47458,1.0570294,-7.847262
1960,-7.778767,1.0980065,-7.5933237
1961,-8.0614195,1.1291132,-7.4473615
1962,-8.207381,1.2511472,-7.468897
1963,-8.272287,1.3540385,-7.519146
1964,-8.387142,1.3444673,-7.722835
1965,-8.389535,1.3420744,-7.85444
1966,-8.289037,1.3444673,-7.993523
1967,-8.161918,1.3229318,-8.206783
1968,-7.9510508,1.3974084,-8.314461
1969,-7.8050885,1.4141582,-8.359924
1970,-7.687541,1.457229,-8.407781
1971,-7.670791,1.2894323,-8.503793
1972,-7.783553,1.2320045,-8.563613
1973,-7.8577304,1.2104691,-8.640183
1974,-7.943872,1.1530414,-8.712267
1975,-7.998907,1.1554343,-8.70479
1976,-8.013563,1.2008978,-8.68804
1977,-7.931908,1.2008978,-8.700004
1978,-7.8170524,1.2343974,-8.649755
1979,-7.6492558,1.2631112,-8.635398
1980,-7.596614,1.3420744,-8.652147
1981,-7.472187,1.442872,-8.71466
1982,-7.3402824,1.7063817,-9.023633
1983,-7.172486,1.8164514,-8.992527
1984,-7.0695944,1.9292133,-8.930014
1985,-7.048059,1.9004993,-8.719446
1986,-7.0576305,1.849951,-8.587542
1987,-7.0193453,1.768595,-8.388638
1988,-6.9930243,1.4452649,-8.058129
1989,-6.8946195,1.2846466,-7.9576306
1990,-6.834799,1.1003993,-7.952845
1991,-6.7965136,0.9206385,-8.043773
1992,-6.7869425,0.7576275,-7.9887376
1993,-6.765407,0.6547361,-7.912167
1994,-6.889834,0.56859446,-7.732406
1995,-7.0504518,0.51086766,-7.54786
1996,-7.143772,0.5300102,-7.4234333
1997,-7.390532,0.4941179,-7.3345995
1998,-7.5870423,0.4941179,-7.219744
1999,-7.656434,0.5901299,-7.272386
2000,-7.6683984,0.7073782,-7.3082786
