,ax,ay,az
501,-4.5062833,-0.8593224,-10.506286
502,-4.1518464,-1.096511,-10.523036
503,-3.7543387,-1.1706885,-10.470394
504,-3.423531,-1.204188,-10.312168
505,-3.2368908,-1.1778669,-10.420144
506,-3.0332017,-1.2329018,-10.300204
507,-2.8342984,-1.1611172,-10.139885
508,-2.7529426,-1.2089736,-9.998409
509,-2.542075,-1.1970096,-9.919446
510,-2.3192434,-1.2568301,-9.921839
511,-2.1996021,-1.2855439,-9.96491
512,-2.161317,-1.3336995,-10.077672
513,-2.2354946,-1.4174483,-10.221241
514,-2.4320052,-1.3480564,-10.33161
515,-2.7194428,-1.204188,-10.149456
516,-3.0332017,-1.1419746,-10.003195
517,-3.313461,-1.0869397,-9.823733
518,-3.8213377,-1.0893325,-9.553045
519,-4.173382,-1.0339985,-9.31825
520,-4.4081774,-0.98853487,-9.030811
521,-4.5472603,-1.0534402,-8.7577305
522,-4.5879383,-1.082154,-8.39821
523,-4.5038905,-1.1180464,-8.201998
524,-4.4608197,-1.0725827,-8.197212
525,-4.039384,-1.2664014,-8.283354
526,-3.6176488,-1.3241283,-8.355139
527,-3.1914272,-1.3767704,-8.65454
528,-2.5516462,-1.4270196,-8.85823
529,-2.1948166,-1.4533406,-9.049954
530,-1.8810577,-1.4174483,-9.152845
531,-1.6127625,-1.4916258,-9.313464
532,-1.5550356,-1.6211374,-9.449855
533,-1.6175481,-1.8990039,-9.53151
534,-1.8233309,-2.1649063,-9.507282
535,-2.1924238,-2.2845473,-9.342177
536,-2.6979074,-2.179263,-9.227023
537,-3.100201,-2.0401804,-9.155238
538,-3.2560334,-1.8918254,-9.08824
539,-3.5243287,-1.6163517,-9.028419
540,-3.6320057,-1.4772689,-9.124132
541,-3.505186,-1.4796617,-9.25125
542,-3.452544,-1.5681962,-9.349357
543,-3.3349965,-1.8990039,-9.306286
544,-3.2560334,-2.2510478,-9.215059
545,-3.315854,-2.6198416,-9.215059
546,-3.3206396,-2.804388,-9.301499
547,-3.3900316,-2.996113,-9.2488575
548,-3.464508,-3.0583265,-9.210274
549,-3.4764721,-3.091826,-9.179167
550,-3.3756745,-2.9793632,-9.13131
551,-3.2392836,-2.972185,-8.999705
552,-3.1313076,-2.984149,-8.975478
553,-2.9853454,-3.063112,-8.9348
554,-2.935096,-3.1253254,-8.985348
555,-2.8677979,-3.226123,-8.95155
556,-2.9279177,-3.281158,-8.915657
557,-2.990131,-3.3122647,-8.803194
558,-3.083451,-3.2883365,-8.623434
559,-3.1097722,-3.281158,-8.460722
560,-3.2679975,-3.0439694,-8.417352
561,-3.2679975,-2.8642087,-8.240283
562,-3.342175,-2.6006992,-8.165807
563,-3.3637104,-2.3276181,-8.180463
564,-3.3924243,-2.0688944,-8.120343
565,-3.3900316,-1.8293129,-8.070093
566,-3.3278182,-1.6546369,-7.9648094
567,-3.260819,-1.3959129,-7.751549
568,-3.2679975,-1.2233306,-7.4880395
569,-3.205784,-1.1395818,-7.0950184
570,-3.095415,-1.1276177,-6.769295
571,-2.990131,-1.2017952,-6.4028945
572,-2.824727,-1.4437693,-6.1250277
573,-2.5779674,-1.6953149,-6.031409
574,-2.324029,-2.033002,-6.1393847
575,-2.0078773,-2.2606192,-6.16092
576,-1.7730815,-2.5169504,-6.3215384
577,-1.6438692,-2.778067,-6.4387865
578,-1.4976078,-2.8905299,-6.5201426
579,-1.3899308,-3.0176485,-6.587441
580,-1.334896,-3.065505,-6.666404
581,-1.3564314,-3.187838,-6.841379
582,-1.5047864,-3.1253254,-7.056733
583,-1.6366907,-2.8761728,-7.248458
584,-1.7228323,-2.495415,-7.43779
585,-1.8906289,-2.155335,-7.5047894
586,-2.0916262,-1.9588244,-7.495218
587,-2.4248266,-1.9037895,-7.387541
588,-2.6018956,-1.9468603,-7.3513494
589,-3.0475588,-2.2127628,-7.3011003
590,-3.5482569,-2.5193431,-7.3803625
591,-3.7304106,-2.6536403,-7.4880395
592,-3.8261235,-2.6919255,-7.509575
593,-3.938586,-2.6006992,-7.545467
594,-3.9074793,-2.507379,-7.461718
595,-3.8787656,-2.4044876,-7.4042907
596,-3.8285162,-2.4571297,-7.385148
597,-3.6559339,-2.5576284,-7.543074
598,-3.4211383,-2.545664,-7.7826557
599,-3.263212,-2.5384858,-7.899904
600,-2.800799,-2.3829522,-8.070093
601,-2.4822545,-2.1720848,-8.304889
602,-2.3144577,-2.006681,-8.393424
603,-2.1924238,-1.9492532,-8.475079
604,-2.2139592,-1.9492532,-8.532506
605,-2.2067807,-1.87029,-8.803194
606,-2.2498515,-1.8655044,-9.011669
607,-2.3144577,-1.9157536,-9.28475
608,-2.3913271,-1.9851454,-9.366106
609,-2.527718,-2.1505494,-9.34457
610,-2.7792635,-2.2701905,-9.416355
611,-3.0140593,-2.399702,-9.368499
612,-3.4283166,-2.536093,-9.330214
613,-3.5530424,-2.5791638,-9.268001
614,-4.005884,-2.574378,-9.370892
615,-4.3148575,-2.4858437,-9.500104
616,-4.532903,-2.207977,-9.706186
617,-4.5424747,-1.9420747,-9.8117695
618,-4.573581,-1.5538392,-9.770792
619,-4.5352964,-1.3648062,-9.682258
620,-4.3890347,-1.1108679,-9.5506525
621,-4.156632,-0.93349993,-9.47139
622,-3.8548372,-0.98614204,-9.483355
623,-3.4573295,-1.1491531,-9.639187
624,-3.2392836,-1.2472588,-9.706186
625,-2.513361,-1.474876,-9.972089
626,-2.1732812,-1.4653047,-10.046266
627,-1.8185452,-1.3695918,-10.168599
628,-1.6366907,-1.2640085,-10.233205
629,-1.5382859,-1.1371889,-10.384252
630,-1.605584,-1.0411769,-10.592727
631,-1.7682959,-0.91435736,-10.925629
632,-2.1828525,-0.9167502,-11.026127
633,-2.635395,-0.95742816,-10.939985
634,-3.0116663,-1.1371889,-10.683654
635,-3.62722,-1.2520444,-10.350753
636,-3.8380876,-1.0893325,-9.98166
637,-4.391428,-1.2233306,-9.945767
638,-4.470391,-1.1252248,-9.8428755
639,-4.393821,-0.72263247,-9.763614
640,-4.393821,-0.35144582,-10.099207
641,-4.3483567,-0.109471634,-10.381859
642,-4.1638107,0.07507481,-10.654941
643,-4.1111684,0.20428723,-10.939985
644,-4.065705,0.08943175,-11.08834
645,-3.979264,-0.19082761,-11.054841
646,-3.8739798,-0.4016951,-10.968699
647,-3.900301,-0.63170516,-10.745868
648,-3.7998023,-0.8138588,-10.544571
649,-3.7591243,-0.84735835,-10.5015
650,-3.7061832,-0.8665009,-10.523036
651,-3.6367912,-0.7465607,-10.592727
652,-3.629613,-0.60777694,-10.822437
653,-3.6032917,-0.4232305,-11.076376
654,-3.5673995,-0.29641092,-11.378171
655,-3.493222,-0.15254244,-11.639288
656,-3.4980075,0.012562319,-11.766406
657,-3.4980075,0.15164514,-11.984452
658,-3.653541,0.3505485,-11.991631
659,-3.845266,0.4534399,-11.967703
660,-3.9649072,0.43669012,-11.883655
661,-4.278965,0.3290131,-11.634501
662,-4.482355,0.24975087,-11.431112
663,-4.7195435,0.1061815,-10.987842
664,-4.901697,-0.028115666,-10.503893
665,-4.995017,-0.17407785,-9.945767
666,-4.928018,-0.27008986,-9.557831
667,-4.6525445,-0.41844487,-9.416355
668,-4.3316073,-0.55752766,-9.485747
669,-3.9170506,-0.60777694,-9.68465
670,-3.5171502,-0.63170516,-9.840483
671,-3.1671999,-0.6221339,-10.113564
672,-2.923132,-0.701097,-10.216455
673,-2.7146573,-0.8808578,-10.269097
674,-2.7553353,-1.1108679,-10.221241
675,-2.9207392,-1.3094722,-10.00798
676,-3.1049864,-1.4557334,-9.792626
677,-3.3373895,-1.5131612,-9.576974
678,-3.4573295,-1.4868401,-9.41157
679,-3.5913277,-1.3094722,-9.205488
680,-3.6080775,-1.1563315,-9.2126665
681,-3.6343985,-0.9239286,-9.155238
682,-3.6152558,-0.7298109,-9.026026
683,-3.5410783,-0.63170516,-9.042776
684,-3.4669008,-0.6412765,-9.116954
685,-3.1504502,-0.70348984,-9.236594
686,-2.9685955,-0.80907315,-9.385248
687,-2.8031917,-0.9502497,-9.51476
688,-2.8462625,-0.9909277,-9.53151
689,-2.5899315,-1.218545,-9.672687
690,-2.5468607,-1.326521,-9.675079
691,-2.582753,-1.3600205,-9.699007
692,-2.6835506,-1.2687942,-9.586545
693,-2.9374888,-1.1515459,-9.617652
694,-3.2943187,-1.0220344,-9.500104
695,-3.5865421,-1.0510473,-9.387642
696,-4.1207395,-1.0435698,-9.315857
697,-4.4967117,-1.1467602,-9.104989
698,-4.724329,-1.2281163,-8.985348
699,-4.8681974,-1.3767704,-8.800801
700,-4.90409,-1.4365909,-8.633005
701,-4.7578287,-1.4126626,-8.5779705
702,-4.4751763,-1.3528421,-8.554042
703,-4.034598,-1.2975081,-8.70479
704,-3.5817564,-1.1946167,-9.030811
705,-3.1624143,-1.1706885,-9.263215
706,-2.7481568,-1.1706885,-9.526724
707,-2.4391835,-1.2616158,-9.655936
708,-2.3168504,-1.5490535,-9.620045
709,-2.3216362,-1.7934206,-9.615258
710,-2.446362,-2.0521445,-9.615258
711,-2.5468607,-2.2271197,-9.490533
712,-2.6668007,-2.399702,-9.339785
713,-2.7026932,-2.454737,-9.24138
714,-2.7314072,-2.4571297,-9.229416
715,-2.7888348,-2.4690938,-9.25125
716,-2.8677979,-2.536093,-9.268001
717,-2.9590242,-2.5384858,-9.342177
718,-3.2153554,-2.478665,-9.459426
719,-3.394817,-2.3395824,-9.517153
720,-3.5865421,-2.1649063,-9.435498
721,-3.8835511,-2.0401804,-9.265608
722,-3.9864426,-1.9947168,-8.99492
723,-4.080062,-1.9899311,-8.676076
724,-4.039384,-2.1218355,-8.539685
725,-3.818945,-2.3395824,-8.563613
726,-3.588935,-2.495415,-8.635398
727,-3.234498,-2.6341987,-8.721839
728,-2.879762,-2.7038896,-8.796016
729,-2.5396821,-2.684747,-8.894122
730,-2.3001008,-2.658426,-8.985348
731,-2.1131616,-2.7014968,-8.958728
732,-2.0988045,-2.7996025,-8.958728
733,-2.2139592,-2.929114,-8.79123
734,-2.420041,-3.022434,-8.736196
735,-2.6620152,-3.0463624,-8.5014
736,-2.9973094,-3.0272198,-8.285747
737,-3.2392836,-2.8881369,-8.048558
738,-3.4980075,-2.8019953,-7.7611203
739,-3.9146578,-2.5552354,-7.3250284
740,-4.106383,-2.2917259,-6.97777
741,-4.1494536,-1.9564316,-6.65444
742,-4.147061,-1.5972091,-6.3981085
743,-4.005884,-1.2927225,-6.1513486
744,-3.845266,-1.1395818,-5.849554
745,-3.5793636,-1.1204392,-5.6506505
746,-3.2560334,-1.2520444,-5.6123657
747,-3.0140593,-1.4246268,-5.6123657
748,-2.475076,-1.6331015,-5.741578
749,-2.0748763,-1.8607187,-5.878268
750,-1.7012969,-2.0760727,-5.9141603
751,-1.3301103,-2.2845473,-6.108278
752,-1.1240284,-2.5002005,-6.122635
753,-0.8461619,-2.8689942,-6.242276
754,-0.71425754,-3.1253254,-6.3717875
755,-0.5563313,-3.3672996,-6.6281185
756,-0.4962116,-3.4486556,-6.8219376
757,-0.5204389,-3.3840494,-7.344171
758,-0.60658056,-3.2045877,-7.5885377
759,-0.85094756,-2.8474588,-7.9337025
760,-1.2771691,-2.4619155,-8.096415
761,-1.6031911,-2.1505494,-8.338388
762,-2.0748763,-2.0521445,-8.508578
763,-2.2905295,-2.0114665,-8.570791
764,-2.951846,-1.9875383,-8.546864
765,-3.4450665,-2.059323,-8.402995
766,-3.8165522,-2.0545373,-8.252247
767,-4.1255255,-2.0617158,-8.1275215
768,-4.3411784,-2.0952153,-8.022237
769,-4.5616174,-2.1505494,-7.9887376
770,-4.6908298,-2.2295125,-7.938488
771,-4.681258,-2.155335,-7.9887376
772,-4.5472603,-2.1337996,-8.16102
773,-4.0130625,-1.9683957,-8.443972
774,-3.612863,-1.8990039,-8.67129
775,-2.9685955,-1.9468603,-8.843872
776,-2.7625136,-1.992324,-8.956335
777,-2.25703,-2.0880368,-9.275179
778,-1.9480567,-2.2127628,-9.478569
779,-1.7252251,-2.236691,-9.833304
780,-1.6247265,-2.1912274,-10.264312
781,-1.698904,-2.140978,-10.42493
782,-1.8475581,-1.9899311,-10.453644
783,-2.2091734,-1.9420747,-10.060922
784,-2.4415765,-1.8460627,-9.943375
785,-3.045166,-1.7982062,-9.342177
786,-3.3661032,-1.7599211,-9.107382
787,-3.5410783,-1.7240287,-9.097811
788,-3.572185,-1.7455641,-9.093025
789,-3.6631124,-1.707279,-9.574581
790,-3.641577,-1.7001005,-9.87159
791,-3.5650067,-1.599602,-10.056136
792,-3.5075788,-1.5083755,-10.137492
793,-3.4426737,-1.3791631,-10.216455
794,-3.4716866,-1.3070793,-10.235598
795,-3.452544,-1.3046865,-10.226027
796,-3.6080775,-1.2017952,-10.17817
797,-3.6248271,-1.07019,-10.266705
798,-3.6750765,-0.8665009,-10.590334
799,-3.6367912,-0.7322037,-10.753046
800,-3.9433718,-0.53359944,-10.861022
801,-3.8548372,-0.4016951,-10.698011
802,-4.1111684,-0.389731,-10.470394
803,-4.4081774,-0.4351946,-10.072886
804,-4.5855455,-0.6269195,-9.706186
805,-4.698008,-0.72741807,-9.5048895
806,-4.7988057,-0.81625164,-9.416355
807,-4.592724,-0.92632145,-9.418748
808,-4.235595,-0.89042914,-9.466604
809,-3.6774693,-0.919143,-9.727721
810,-2.9566314,-0.87367934,-10.060922
811,-2.4535406,-0.8880363,-10.30499
812,-2.1254246,-0.8856435,-10.448858
813,-1.931307,-0.9622138,-10.650154
814,-1.7324036,-0.96460664,-10.920842
815,-1.6630118,-0.91435736,-11.220244
816,-1.8257236,-0.7369894,-11.361421
817,-2.2019951,-0.67477596,-11.3351
818,-2.7074788,-0.59342,-11.062019
819,-2.992524,-0.5455636,-10.848759
820,-3.682255,-0.45673,-10.503893
821,-4.046562,-0.37776688,-10.40818
822,-4.2741795,-0.22671995,-10.412966
823,-4.386642,-0.07836494,-10.429716
824,-4.482355,0.02213361,-10.542178
825,-4.5448675,0.2856432,-10.743475
826,-4.494319,0.45104706,-10.822437
827,-4.400999,0.45583272,-10.853844
828,-4.1901317,0.38883367,-10.84158
829,-3.9744785,0.30987054,-10.911271
830,-3.5626137,0.1468595,-11.078769
831,-3.2656047,0.15882361,-11.109876
832,-3.0690942,0.08703893,-11.174781
833,-2.8175488,0.027218357,-11.117353
834,-2.6572297,-0.020937199,-11.148459
835,-2.5492535,0.0077766734,-11.210673
836,-2.513361,0.058325052,-11.177174
837,-2.6473591,0.04875376,-11.042876
838,-2.7481568,0.0029910284,-10.884951
839,-3.05713,-0.10468599,-10.489536
840,-3.4980075,-0.39690945,-9.926624
841,-3.790231,-0.6771688,-9.519546
842,-3.9720855,-0.9454641,-9.236594
843,-4.032205,-1.1850454,-9.121739
844,-4.0178485,-1.2831511,-9.116954
845,-3.8093736,-1.3384851,-9.229416
846,-3.519543,-1.2017952,-9.323035
847,-3.2871401,-1.0363913,-9.428319
848,-2.9805596,-1.0028918,-9.60808
849,-2.774478,-0.9239286,-9.754043
850,-2.5851457,-0.9550353,-9.931411
851,-2.6572297,-0.98853487,-10.010373
852,-2.678765,-1.0606186,-10.010373
853,-2.772085,-1.0387841,-10.019945
854,-2.9685955,-1.0462617,-10.012766
855,-3.1624143,-1.0220344,-9.917053
856,-3.3086755,-0.9933205,-9.998409
857,-3.5099716,-0.89760756,-9.833304
858,-3.588935,-0.7680961,-9.739685
859,-3.739982,-0.67477596,-9.660723
860,-3.8093736,-0.66041905,-9.579367
861,-3.7878382,-0.73459655,-9.615258
862,-3.7734814,-0.89042914,-9.737292
863,-3.6894333,-1.000499,-9.737292
864,-3.521936,-1.1730813,-9.722936
865,-3.3182468,-1.3121641,-9.584152
866,-3.2416766,-1.3695918,-9.502497
867,-3.0738797,-1.3022938,-9.373284
868,-2.992524,-1.2209377,-9.303893
869,-2.824727,-1.1180464,-9.217452
870,-2.6258237,-1.0196415,-9.287143
871,-2.568396,-1.0292128,-9.413962
872,-2.4798615,-1.0534402,-9.497711
873,-2.4702902,-1.1970096,-9.445069
874,-2.5181468,-1.3384851,-9.291928
875,-2.606681,-1.4413766,-9.047562
876,-2.7242286,-1.556232,-8.913264
877,-2.8295128,-1.7120646,-8.7266245
878,-2.841477,-1.814956,-8.616255
879,-2.8079774,-1.9085752,-8.62822
880,-2.7888348,-1.8798612,-8.62822
881,-2.7553353,-1.8221345,-8.659326
882,-2.6282165,-1.8077775,-8.7673025
883,-2.556432,-1.7120646,-9.009276
884,-2.5396821,-1.6546369,-9.104989
885,-2.4439692,-1.6091732,-9.2895355
886,-2.4367907,-1.5011971,-9.3613205
887,-2.3551357,-1.3719847,-9.526724
888,-2.3503501,-1.3791631,-9.605687
889,-2.5253253,-1.4174483,-9.881161
890,-2.6401806,-1.4796617,-9.933804
891,-2.7553353,-1.666601,-9.960124
892,-2.9590242,-1.9037895,-9.869197
893,-3.138486,-2.2414765,-9.65833
894,-3.2392836,-2.3587248,-9.560224
895,-3.409174,-2.5983062,-9.382855
896,-3.4283166,-2.7397819,-9.203095
897,-3.4764721,-2.7326035,-9.119347
898,-3.423531,-2.7397819,-9.195916
899,-3.4043884,-2.684747,-9.2437725
900,-3.301497,-2.5265217,-9.404391
901,-3.1480572,-2.4451656,-9.648758
902,-3.0786655,-2.3539393,-9.768399
903,-2.9614172,-2.3802602,-9.679865
904,-2.951846,-2.3778675,-9.557831
905,-2.9207392,-2.5145576,-9.215059
906,-2.841477,-2.6656044,-8.891729
907,-2.8319056,-2.885744,-8.659326
908,-2.8869405,-3.1109686,-8.5779705
909,-2.949453,-3.3122647,-8.625827
910,-3.016452,-3.4223347,-8.585149
911,-3.042773,-3.4920256,-8.518149
912,-3.0643084,-3.4462628,-8.393424
913,-3.112165,-3.2117662,-8.25464
914,-3.1432717,-2.8929226,-8.00788
915,-3.1360931,-2.4858437,-7.713264
916,-3.1504502,-2.274976,-7.6220374
917,-3.0355947,-1.7455641,-7.3417783
918,-2.8558338,-1.4820545,-7.2963142
919,-2.6739793,-1.2783655,-7.3609204
920,-2.4296124,-1.1252248,-7.3322067
921,-2.324029,-1.1324034,-7.265208
922,-2.094019,-1.1419746,-7.2341013
923,-1.9671993,-1.2424731,-6.9825554
924,-1.9217356,-1.3815559,-6.812366
925,-1.9480567,-1.5203397,-6.6999035
926,-1.931307,-1.570589,-6.5898337
927,-1.9959131,-1.6953149,-6.369395
928,-2.1302104,-1.9396819,-6.1968126
929,-2.1780667,-2.1194427,-6.062814
930,-2.1637099,-2.289333,-6.000302
931,-2.0820549,-2.4092734,-6.079564
932,-2.0509481,-2.5145576,-6.081957
933,-1.8281165,-2.7014968,-6.350252
934,-1.7611175,-2.8091738,-6.798009
935,-1.6510476,-2.7637103,-7.246065
936,-1.5816557,-2.6751757,-7.6363945
937,-1.5167505,-2.5265217,-8.225926
938,-1.5574285,-2.4451656,-8.429316
939,-1.8690935,-2.224727,-8.743374
940,-2.053341,-2.0497518,-8.796016
941,-2.513361,-1.9492532,-8.67129
942,-2.8079774,-1.8846469,-8.422137
943,-3.2871401,-1.7838492,-8.019844
944,-3.6463625,-1.7575282,-7.813762
945,-3.8356948,-1.7958134,-7.6773715
946,-3.9840498,-1.9277177,-7.5813594
947,-3.9290147,-1.9755741,-7.7036924
948,-3.6391842,-2.1816561,-7.9337025
949,-3.2392836,-2.3276181,-8.172985
950,-2.882155,-2.4595225,-8.470293
951,-2.4942186,-2.4882364,-8.649755
952,-2.2211375,-2.4714868,-8.941978
953,-1.9049859,-2.4762723,-9.02124
954,-1.7443677,-2.4499512,-9.157631
955,-1.6295122,-2.414059,-9.28475
956,-1.7347964,-2.4044876,-9.246465
957,-1.8161523,-2.2941186,-9.279964
958,-1.8906289,-2.1577277,-9.385248
959,-1.9671993,-2.0018952,-9.48814
960,-2.1541386,-1.7718852,-9.639187
961,-2.3072793,-1.6402799,-9.862019
962,-2.515754,-1.5753746,-9.979267
963,-2.676372,-1.5394822,-9.952946
964,-2.9255247,-1.5442679,-10.005588
965,-2.9997022,-1.5634105,-9.974482
966,-3.478865,-1.7288144,-9.869197
967,-3.7734814,-1.9277177,-9.710972
968,-3.9673,-1.937289,-9.634401
969,-4.0704904,-1.8197416,-9.787841
970,-4.0585265,-1.5924234,-9.991231
971,-3.9026937,-1.340878,-10.170992
972,-3.7974095,-1.055833,-10.365109
973,-3.6607196,-0.8449655,-10.436894
974,-3.5841491,-0.83778703,-10.2978115
975,-3.5339,-0.9526425,-10.125528
976,-3.4908292,-1.1395818,-9.967302
977,-3.3613176,-1.3241283,-9.921839
978,-3.1313076,-1.3839488,-9.890733
979,-2.923132,-1.4174483,-10.063314
980,-2.6186452,-1.2496517,-10.314561
981,-2.3742783,-0.878465,-10.590334
982,-2.2402802,-0.48305106,-10.657333
983,-2.1445673,-0.109471634,-10.817652
984,-2.1083758,0.2760719,-11.057234
985,-2.204388,0.37686956,-11.090733
986,-2.5205395,0.36729828,-11.248959
987,-2.8677979,0.08703893,-11.1987095
988,-3.1217363,-0.17168503,-11.054841
989,-3.6511483,-0.6795616,-10.827224
990,-3.8931224,-0.9909277,-10.700404
991,-4.0202413,-1.1252248,-10.458429
992,-4.075276,-1.1276177,-10.130314
993,-4.080062,-0.98614204,-9.900304
994,-4.032205,-0.6149554,-10.019945
995,-3.8787656,-0.30119655,-10.154242
996,-3.6870406,0.00059820566,-10.422537
997,-3.4956148,0.14446667,-10.695618
998,-3.246462,0.13010973,-11.021341
999,-3.071487,0.09421739,-11.2393875
1000,-2.9012976,0.1468595,-11.315957
1001,-2.676372,0.21385853,-11.363813
1002,-2.4942186,0.34097722,-11.3880415
1003,-2.475076,0.37447673,-11.363813
1004,-2.3790638,0.37447673,-11.4191475
1005,-2.2905295,0.27846473,-11.538789
1006,-2.324029,0.03678965,-11.601003
1007,-2.4774687,-0.1692922,-11.605788
1008,-2.5755744,-0.18364914,-11.440683
1009,-2.6883361,-0.13100705,-11.150852
1010,-2.8606195,0.024526432,-10.932807
1011,-2.9132617,0.09661021,-10.702797
1012,-2.9685955,0.08703893,-10.566107
1013,-3.0475588,0.118145615,-10.527822
1014,-2.9781668,0.08225328,-10.367502
1015,-2.8869405,0.13250256,-10.206884
1016,-2.7026932,0.1061815,-10.063314
1017,-2.6425736,-0.0424726,-9.818948
1018,-2.4990041,-0.32512477,-9.500104
1019,-2.4990041,-0.42083767,-9.464211
1020,-2.4104698,-1.0363913,-9.238987
1021,-2.2785654,-1.4461622,-9.31825
1022,-2.1708884,-1.7599211,-9.433105
1023,-2.1708884,-1.7599211,-9.433105
1024,-2.149353,-2.0018952,-9.900304
1025,-2.2522442,-1.8173488,-10.249955
1026,-2.5707889,-1.2113664,-10.508678
1027,-2.824727,-0.9071789,-10.683654
1028,-3.2177482,-0.5240282,-10.774581
1029,-3.5865421,-0.23868406,-10.717154
1030,-3.5865421,-0.23868406,-10.717154
1031,-4.115954,0.051146585,-10.456037
1032,-4.3555355,-0.05682954,-10.159028
1033,-4.5592246,-0.3681956,-9.775578
1034,-4.5687957,-0.89282197,-9.612865
1035,-4.252345,-1.3815559,-9.758828
1036,-3.871587,-1.8053846,-9.727721
1037,-3.531507,-2.097608,-9.814162
1038,-3.3349965,-2.1720848,-9.876375
1039,-2.7361927,-2.2390838,-9.969695
1040,-2.3694925,-2.0545373,-10.08485
1041,-2.1397817,-1.8173488,-9.969695
1042,-2.1397817,-1.8173488,-9.969695
1043,-1.6342978,-1.0869397,-9.972089
1044,-1.6462619,-0.7537391,-9.902697
1045,-1.6247265,-0.50458646,-9.744472
1046,-1.727618,-0.46869412,-9.617652
1047,-1.9552352,-0.7082755,-9.31825
1048,-2.0222342,-0.94307125,-9.138489
1049,-2.134996,-1.3094722,-8.999705
1050,-2.1326032,-1.7240287,-8.882157
1051,-2.094019,-2.059323,-8.779266
1052,-2.0892332,-2.2342982,-8.784052
1053,-2.0964117,-2.2390838,-8.908479
1054,-1.9935204,-2.097608,-9.095418
1055,-2.0485554,-1.8774685,-9.162417
1056,-2.1972094,-1.6953149,-9.246465
1057,-2.3168504,-1.4916258,-9.421141
1058,-2.5085754,-1.355235,-9.497711
1059,-2.5755744,-1.2065809,-9.521938
1060,-2.6691937,-1.0989038,-9.387642
1061,-2.800799,-1.1491531,-9.265608
1062,-2.8701909,-1.2352947,-9.25125
1063,-2.853441,-1.3695918,-9.334999
1064,-2.8606195,-1.6594225,-9.490533
1065,-2.8342984,-2.0832512,-9.660723
1066,-2.7672994,-2.2582264,-9.696614
1067,-2.8438697,-2.4451656,-9.588938
1068,-2.8773692,-2.5911279,-9.507282
1069,-3.0020952,-2.6656044,-9.301499
1070,-3.0882368,-2.7684958,-9.160025
1071,-3.1289146,-2.7469604,-9.045169
1072,-3.0475588,-2.6461627,-9.026026
1073,-2.8725836,-2.4212375,-9.097811
1074,-2.5875385,-2.289333,-9.210274
1075,-2.283351,-2.2007985,-9.24138
1076,-2.1083758,-2.1601207,-9.279964
1077,-1.931307,-2.2295125,-9.275179
1078,-1.7204394,-2.3132613,-9.193523
1079,-1.6079768,-2.4738796,-9.057133
1080,-1.509572,-2.6078775,-8.886943
1081,-1.5864414,-2.7086751,-8.76491
1082,-1.6414764,-2.929114,-8.659326
1083,-1.8376877,-3.1109686,-8.606684
1084,-2.1107686,-3.281158,-8.438888
1085,-2.5061827,-3.3146574,-8.295318
1086,-2.7625136,-3.281158,-8.429316
1087,-3.030809,-3.173182,-8.369495
1088,-3.246462,-3.1420753,-8.321639
1089,-3.778267,-2.806781,-8.319246
1090,-4.0034914,-2.6461627,-8.259425
1091,-4.147061,-2.370689,-8.156235
1092,-4.286144,-2.1095722,-7.91456
1093,-4.2909293,-1.9396819,-7.600502
1094,-4.293322,-1.7599211,-7.346564
1095,-4.1518464,-1.5753746,-7.1455665
1096,-3.9170506,-1.4030914,-7.0615187
1097,-3.4740794,-1.2520444,-6.88445
1098,-3.0619156,-1.2544373,-6.858129
1099,-2.4296124,-1.314557,-6.71426
1100,-2.0341983,-1.3767704,-6.6281185
1101,-1.5382859,-1.5275182,-6.5682983
1102,-1.0208379,-1.7264216,-6.573084
1103,-0.70229346,-1.8029919,-6.524928
1104,-0.3167499,-2.004288,-6.5512495
1105,0.035593238,-2.2007985,-6.580262
1106,0.23659034,-2.3060827,-6.802795
1107,0.5192425,-2.3682961,-7.056733
1108,0.79710907,-2.3347967,-7.3633137
1109,0.95772725,-2.3682961,-7.6124663
1110,0.9314062,-2.4714868,-7.91456
1111,0.55752766,-2.6365914,-8.089236
1112,-0.1058824,-2.7326035,-8.16102
1113,-0.8892327,-2.8187451,-8.206783
1114,-1.6630118,-2.87378,-8.400602
1115,-2.4104698,-2.8163524,-8.532506
1116,-3.0595229,-2.7014968,-8.496614
1117,-3.6080775,-2.3659034,-8.393424
1118,-3.926622,-2.0210378,-8.472686
1119,-4.322036,-1.5804594,-8.228319
1120,-4.484748,-1.3935201,-8.103593
1121,-4.6956153,-1.4102699,-7.9767733
1122,-4.7267222,-1.5370895,-8.053344
1123,-4.604688,-1.774278,-8.197212
1124,-4.2981076,-1.9564316,-8.451151
1125,-3.8907297,-2.1023939,-8.56122
1126,-3.3445678,-2.1529422,-8.652147
1127,-2.882155,-2.1481566,-8.736196
1128,-2.4320052,-2.289333,-8.68804
1129,-2.2378874,-2.3587248,-8.673683
1130,-1.864308,-2.6246274,-8.68804
1131,-1.5000007,-2.7756743,-8.860622
1132,-1.1910275,-2.7326035,-9.272786
1133,-0.9203394,-2.6413772,-9.708579
1134,-0.80787677,-2.4499512,-10.19492
1135,-0.78634137,-2.2103698,-10.403395
1136,-1.1288141,-1.9348962,-10.403395
1137,-1.6247265,-1.8101703,-10.233205
1138,-1.971985,-1.8798612,-10.115957
1139,-3.0906296,-2.0641086,-9.768399
1140,-3.6200416,-2.207977,-9.586545
1141,-4.2020955,-2.3371894,-9.291928
1142,-4.6764727,-2.3419752,-9.138489
1143,-4.8490553,-2.129014,-9.143274
1144,-4.662116,-1.7407784,-9.330214
1145,-4.441677,-1.2975081,-9.457033
1146,-4.170989,-1.0220344,-9.586545
1147,-3.792624,-0.9071789,-9.639187
1148,-3.6846478,-0.919143,-9.687043
1149,-3.071487,-1.2281163,-9.761221
1150,-2.824727,-1.3719847,-9.878768
1151,-2.364707,-1.6450655,-9.945767
1152,-2.0222342,-1.7503498,-10.024731
1153,-1.7204394,-1.6642082,-10.228419
1154,-1.454537,-1.5107684,-10.355538
1155,-1.2939188,-1.2640085,-10.647761
1156,-1.1886346,-1.055833,-10.877771
1157,-1.3106686,-0.72502524,-11.205888
1158,-1.5936198,-0.526421,-11.272886
1159,-1.8786649,-0.57906306,-11.320743
1160,-2.3718855,-0.65084773,-11.268101
1161,-2.853441,-0.6436693,-11.246566
1162,-3.2033913,-0.62931234,-11.260922
1163,-3.7013974,-0.5982057,-11.169995
1164,-4.0154557,-0.48065826,-11.02852
1165,-4.278965,-0.30358937,-11.018949
1166,-4.4129634,-0.10229317,-11.002198
1167,-4.451248,0.118145615,-11.107483
1168,-4.4392843,0.30029923,-11.189137
1169,-4.377071,0.42951167,-11.19153
1170,-4.2837505,0.39361933,-11.038091
1171,-4.0944185,0.19232312,-10.892129
1172,-3.9987056,0.04875376,-10.911271
1173,-3.560221,-0.29880372,-10.877771
1174,-3.275176,-0.46630132,-10.908878
1175,-2.8510482,-0.70588267,-10.8682
1176,-2.5205395,-0.7752745,-10.930414
1177,-2.3144577,-0.74416786,-10.96152
1178,-1.9384855,-0.6412765,-11.002198
1179,-1.7060826,-0.45912284,-11.097912
1180,-1.5071791,-0.23150559,-11.287244
1181,-1.3707882,-0.14297116,-11.42154
1182,-1.3372887,0.058325052,-11.390434
1183,-1.4162519,0.17318054,-11.359028
1184,-1.6773686,0.1468595,-11.22503
1185,-2.1011975,-0.016151553,-10.861022
1186,-2.3742783,-0.19800608,-10.554143
1187,-2.7338,-0.39212382,-10.264312
1188,-2.94706,-0.5599205,-9.976874
1189,-3.2129626,-0.7585248,-9.6942215
1190,-3.1962128,-0.8066803,-9.54826
1191,-3.030809,-0.7851449,-9.677472
1192,-2.8606195,-0.74177504,-9.732507
1193,-2.4655046,-0.6269195,-10.058529
1194,-2.3865414,-0.63170516,-10.230812
1195,-2.3841486,-0.66041905,-10.341181
1196,-2.5372894,-0.72502524,-10.341181
1197,-2.8725836,-0.74177504,-10.233205
1198,-3.2081769,-0.8066803,-9.900304
1199,-3.4402807,-0.8449655,-9.768399
1200,-3.6056845,-0.959821,-9.555438
1201,-3.7037904,-1.1108679,-9.315857
1202,-3.5865421,-1.1970096,-9.291928
1203,-3.1217363,-1.2903296,-9.586545
1204,-2.784049,-1.3241283,-9.775578
1205,-2.4990041,-1.218545,-9.929018
1206,-2.02702,-1.096511,-10.19492
1207,-1.7970098,-1.0052847,-10.393824
1208,-1.7012969,-0.78035927,-10.444073
1209,-1.8017955,-0.5910272,-10.341181
1210,-1.849951,-0.53599226,-10.024731
1211,-1.9671993,-0.6580262,-9.758828
1212,-2.0365913,-0.6843473,-9.725328
1213,-2.1083758,-0.94785684,-9.6224375
1214,-2.0413768,-1.2257234,-9.368499
1215,-1.9839491,-1.3935201,-9.34457
1216,-1.8906289,-1.5972091,-9.334999
1217,-1.8547367,-1.6953149,-9.485747
1218,-1.8882362,-1.7670995,-9.598509
1219,-2.0198414,-1.7048861,-9.8117695
1220,-2.2618155,-1.6618153,-9.895518
1221,-2.7266214,-1.6019948,-9.840483
1222,-3.1432717,-1.5753746,-9.8117695
1223,-3.3900316,-1.570589,-9.814162
1224,-3.9242291,-1.5394822,-9.581759
1225,-4.1925244,-1.5299109,-9.265608
1226,-4.345964,-1.570589,-8.877372
1227,-4.3387856,-1.5442679,-8.587542
1228,-4.0824547,-1.4246268,-8.472686
1229,-3.696612,-1.2975081,-8.623434
1230,-3.112165,-1.2329018,-8.915657
1231,-2.4894328,-1.3432708,-9.116954
1232,-2.1107686,-1.4844474,-9.282357
1233,-1.6438692,-1.8317057,-9.457033
1234,-1.3133606,-2.0258234,-9.476176
1235,-1.0977074,-2.1481566,-9.562616
1236,-0.85812604,-2.1864417,-9.560224
1237,-0.762114,-2.2031915,-9.543474
1238,-0.6089734,-2.1095722,-9.476176
1239,-0.5180461,-1.8511474,-9.605687
1240,-0.7190432,-1.8245273,-9.725328
1241,-0.93708915,-2.0545373,-9.945767
1242,-1.2340983,-2.2558336,-10.022338
1243,-1.7012969,-2.5384858,-10.092029
1244,-2.01027,-2.6536403,-10.010373
1245,-2.8319056,-2.9120653,-9.792626
1246,-3.2799616,-3.0056844,-9.603294
1247,-3.7133617,-2.9985058,-9.425926
1248,-4.008277,-2.8761728,-9.299107
1249,-4.2308097,-2.6365914,-9.052347
1250,-4.3005004,-2.5600212,-9.045169
1251,-4.2092743,-2.356332,-9.121739
1252,-3.9457645,-2.2701905,-9.354142
1253,-3.5410783,-2.1912274,-9.581759
1254,-3.1217363,-2.224727,-9.634401
1255,-2.8606195,-2.265405,-9.543474
1256,-2.6715865,-2.3682961,-9.268001
1257,-2.4822545,-2.466701,-9.136096
1258,-2.2235305,-2.7206392,-8.738588
1259,-2.094019,-2.9410782,-8.522935
1260,-1.9791634,-3.0463624,-8.42453
1261,-1.9073788,-3.0559337,-8.371888
1262,-1.8137596,-2.984149,-8.2761755
1263,-1.7659031,-2.9362924,-8.335996
1264,-1.9097716,-2.6126633,-8.359924
1265,-2.1035903,-2.414059,-8.225926
1266,-2.3383858,-2.2390838,-8.108378
1267,-2.5779674,-2.0808585,-7.9480596
1268,-2.7122645,-2.004288,-7.804191
1269,-2.8869405,-1.8678972,-7.5215387
1270,-2.9156544,-1.8583258,-7.260422
1271,-2.9662027,-1.8197416,-7.083054
1272,-2.8701909,-1.8388842,-6.8629146
1273,-2.6883361,-1.8340986,-6.762117
1274,-2.4104698,-1.8655044,-6.6687965
1275,-2.1996021,-1.9851454,-6.5440707
1276,-1.9552352,-2.1095722,-6.5344996
1277,-1.6773686,-2.3539393,-6.4794645
1278,-1.4665012,-2.615056,-6.3981085
1279,-1.2053844,-2.8235307,-6.3861446
1280,-0.939482,-3.0726833,-6.5033927
1281,-0.7405786,-3.161218,-6.745367
1282,-0.5033901,-3.1420753,-7.13121
1283,-0.2976073,-2.9315069,-7.435397
1284,-0.11066805,-2.7589245,-7.773084
1285,-0.053240303,-2.5719852,-8.072486
1286,-0.31196424,-2.5049863,-8.36471
1287,-0.82941216,-2.5552354,-8.393424
1288,-1.1288141,-2.5528426,-8.472686
1289,-2.1326032,-2.7972097,-8.482257
1290,-2.6449664,-2.8689942,-8.443972
1291,-3.1671999,-2.8905299,-8.156235
1292,-3.6224344,-2.7565317,-7.919346
1293,-3.9314077,-2.4164517,-7.725228
1294,-4.034598,-2.0688944,-7.6124663
1295,-4.032205,-1.7718852,-7.466504
1296,-4.0298123,-1.6307086,-7.4234333
1297,-3.5482569,-1.5634105,-7.9337025
1298,-3.164807,-1.7431713,-8.340781
1299,-2.7433712,-1.9133608,-8.700004
1300,-2.335993,-2.1768703,-8.772088
1301,-2.0676978,-2.356332,-8.769695
1302,-1.7659031,-2.6246274,-8.748159
1303,-1.579263,-2.7613173,-8.776874
1304,-1.5239289,-2.8283165,-8.776874
1305,-1.495215,-2.8761728,-8.903693
1306,-1.4784653,-2.7493532,-9.191131
1307,-1.5454643,-2.5648067,-9.387642
1308,-1.727618,-2.1095722,-9.581759
1309,-1.9528424,-1.7814565,-9.598509
1310,-2.1708884,-1.5514464,-9.576974
1311,-2.4439692,-1.4844474,-9.47139
1312,-2.9446673,-1.5155541,-9.253643
1313,-3.1456645,-1.599602,-9.205488
1314,-3.560221,-1.7024933,-9.231809
1315,-3.7830527,-1.8029919,-9.339785
1316,-3.7615173,-1.7503498,-9.476176
1317,-3.5506496,-1.6953149,-9.596116
1318,-3.260819,-1.5227325,-9.713365
1319,-2.9805596,-1.3791631,-9.885947
1320,-2.745764,-1.3336995,-9.96491
1321,-2.4774687,-1.2975081,-10.156635
1322,-2.295315,-1.3815559,-10.319646
1323,-2.2067807,-1.4724833,-10.417751
1324,-2.1445673,-1.4653047,-10.491929
1325,-2.1780667,-1.3671991,-10.386645
1326,-2.3913271,-1.2209377,-10.27149
1327,-2.50379,-1.0749756,-10.1853485
1328,-2.7194428,-0.9239286,-10.159028
1329,-3.042773,-0.919143,-10.127921
1330,-3.1552358,-0.93589276,-10.209277
1331,-3.493222,-1.0387841,-10.377073
1332,-3.6607196,-1.1084751,-10.477572
1333,-3.708576,-1.1300105,-10.439287
1334,-3.859623,-1.1587243,-10.427323
1335,-3.8141594,-1.1036894,-10.1853485
1336,-3.8691943,-0.9550353,-10.099207
1337,-3.8835511,-0.81864446,-10.017552
1338,-3.8763726,-0.76570326,-9.986445
1339,-3.9338005,-0.6149554,-10.070493
1340,-3.7710886,-0.47826543,-10.266705
1341,-3.4549367,-0.30358937,-10.439287
1342,-3.1049864,-0.1692922,-10.683654
1343,-2.865405,-0.10468599,-10.923235
1344,-2.3865414,-0.052043892,-11.093125
1345,-2.038984,-0.044865426,-11.311172
1346,-1.8619151,-0.066400826,-11.438291
1347,-1.7850457,-0.054436713,-11.641681
1348,-1.7826529,-0.035294134,-11.754442
1349,-1.931307,-0.18843478,-11.752049
1350,-2.1852453,-0.23868406,-11.632109
1351,-2.554039,-0.32273194,-11.366207
1352,-2.8701909,-0.4112664,-11.213066
1353,-3.2656047,-0.4543372,-11.179566
1354,-3.4884362,-0.32033914,-11.181959
1355,-3.5865421,-0.10707881,-11.2704935
1356,-3.629613,0.20428723,-11.277672
1357,-3.6607196,0.38404804,-11.201102
1358,-3.8093736,0.30508488,-10.942378
1359,-3.8739798,0.118145615,-10.7889385
1360,-3.8093736,-0.19082761,-10.686047
1361,-3.6870406,-0.4112664,-10.695618
1362,-3.4187453,-0.5814559,-10.602298
1363,-3.2584262,-0.61016977,-10.628619
1364,-2.9662027,-0.64845496,-10.513465
1365,-2.606681,-0.6628119,-10.587941
1366,-2.4152553,-0.64606214,-10.645369
1367,-2.3889344,-0.6891329,-10.63819
1368,-2.4296124,-0.72741807,-10.472787
1369,-2.7122645,-0.89042914,-10.214063
1370,-2.9255247,-0.95742816,-10.036695
1371,-3.1432717,-1.0869397,-9.787841
1372,-3.394817,-1.1252248,-9.761221
1373,-3.5171502,-1.0797613,-9.787841
1374,-3.545864,-0.9765707,-9.768399
1375,-3.5865421,-0.90478605,-9.744472
1376,-3.5530424,-0.8665009,-9.651151
1377,-3.6320057,-0.9957133,-9.699007
1378,-3.7447674,-1.1802598,-9.713365
1379,-3.7974095,-1.2951152,-9.675079
1380,-3.8476589,-1.2975081,-9.584152
1381,-3.845266,-1.3360924,-9.387642
1382,-3.7663028,-1.2233306,-9.363713
1383,-3.5626137,-1.0220344,-9.327821
1384,-3.2943187,-0.8712866,-9.207881
1385,-2.8103702,-0.7704889,-9.270393
1386,-2.3742783,-0.76331043,-9.294321
1387,-2.1397817,-0.7923234,-9.299107
1388,-1.835295,-0.8880363,-9.268001
1389,-1.5502499,-0.9287143,-9.234201
1390,-1.2843475,-1.0268201,-9.183952
1391,-1.1001002,-1.1443675,-9.205488
1392,-0.9346963,-1.189831,-9.308679
1393,-0.73579293,-1.2951152,-9.337392
1394,-0.6975078,-1.3217354,-9.500104
1395,-0.7501499,-1.4270196,-9.574581
1396,-1.0184451,-1.4054842,-9.629616
1397,-1.4377873,-1.4030914,-9.665508
1398,-1.943271,-1.448555,-9.65833
1399,-2.4726832,-1.4270196,-9.667901
1400,-2.8558338,-1.4174483,-9.62483
1401,-3.1866415,-1.3193426,-9.529117
1402,-3.5386856,-1.2496517,-9.517153
1403,-4.0202413,-1.1515459,-9.696614
1404,-4.075276,-1.218545,-9.646365
1405,-4.18056,-1.434198,-9.691829
1406,-4.2068815,-1.6833507,-9.555438
1407,-4.2188454,-1.9085752,-9.442677
1408,-4.075276,-2.2462623,-9.193523
1409,-3.9625144,-2.466701,-9.136096
1410,-3.8548372,-2.7038896,-9.085847
1411,-3.6104703,-2.6919255,-9.14806
1412,-3.5099716,-2.672783,-9.152845
1413,-3.205784,-2.3802602,-9.246465
1414,-2.7385855,-1.8364913,-9.425926
1415,-2.4296124,-1.5753746,-9.492926
1416,-2.1852453,-1.3528421,-9.605687
1417,-1.9648064,-1.3046865,-9.660723
1418,-1.6845472,-1.4318053,-9.706186
1419,-1.6366907,-1.6642082,-9.62483
1420,-1.5984055,-1.9875383,-9.579367
1421,-1.6151553,-2.1625135,-9.529117
1422,-1.7419748,-2.5049863,-9.579367
1423,-1.9049859,-2.6775684,-9.632009
1424,-2.1011975,-2.6895328,-9.715757
1425,-2.2785654,-2.6341987,-9.7348995
1426,-2.6330023,-2.4906292,-9.77797
1427,-3.05713,-2.3973093,-9.756435
1428,-3.5075788,-2.370689,-9.706186
1429,-3.940979,-2.414059,-9.588938
1430,-4.2260237,-2.4212375,-9.282357
1431,-4.4871407,-2.4164517,-8.886943
1432,-4.5879383,-2.4475584,-8.683254
1433,-4.5352964,-2.481058,-8.395817
1434,-4.434499,-2.5289145,-8.283354
1435,-4.130311,-2.5552354,-8.335996
1436,-3.723232,-2.5576284,-8.4679
1437,-3.3756745,-2.536093,-8.549256
1438,-3.0188448,-2.5025933,-8.642576
1439,-2.5779674,-2.562414,-8.5779705
1440,-2.0461624,-2.6198416,-8.374281
1441,-1.6390835,-2.7589245,-8.213962
1442,-1.3683954,-2.8666015,-8.046165
1443,-1.1503495,-2.9120653,-7.9624166
1444,-0.97776717,-2.9745777,-7.9576306
1445,-0.8150552,-2.955435,-8.110771
1446,-0.7815557,-2.7732813,-8.194819
1447,-0.86291164,-2.6054847,-8.295318
1448,-1.1575279,-2.2989044,-8.340781
1449,-1.5239289,-2.0138593,-8.178069
1450,-1.9911275,-1.7312071,-7.897511
1451,-2.3599212,-1.5681962,-7.6941214
1452,-2.7361927,-1.4102699,-7.262815
1453,-3.1169505,-1.3983058,-6.949056
1454,-3.4573295,-1.4988043,-6.556035
1455,-3.6583266,-1.719243,-6.2374907
1456,-3.749553,-2.1047866,-5.883054
1457,-3.737589,-2.318047,-5.823233
1458,-3.7133617,-2.845066,-5.7200427
1459,-3.4908292,-3.269194,-5.741578
1460,-3.2297122,-3.525525,-5.8710895
1461,-2.812763,-3.5183465,-6.1010995
1462,-2.3551357,-3.3338,-6.4052873
1463,-2.0868404,-3.173182,-6.5754766
1464,-1.753939,-2.9048867,-6.771688
1465,-1.1335998,-2.548057,-7.126424
1466,-0.7791629,-2.4427729,-7.3803625
1467,-0.54436713,-2.2869403,-7.6678
1468,-0.4459623,-2.274976,-7.899904
1469,-0.31435707,-2.318047,-8.129914
1470,-0.3047858,-2.332404,-8.4197445
1471,-0.45792642,-2.3228326,-8.76491
1472,-0.85094756,-2.2319052,-8.975478
1473,-1.3106686,-2.0880368,-9.107382
1474,-1.7635103,-1.9707886,-9.052347
1475,-2.2235305,-1.9827527,-8.965906
1476,-2.7385855,-2.1047866,-8.920443
1477,-2.8630123,-2.0808585,-8.946764
1478,-3.4474592,-2.2917259,-8.836694
1479,-3.6248271,-2.3204398,-8.913264
1480,-3.749553,-2.3132613,-9.011669
1481,-3.6894333,-2.265405,-9.011669
1482,-3.5626137,-2.126621,-9.026026
1483,-3.2847474,-1.9348962,-8.865408
1484,-2.9877381,-1.87029,-8.815159
1485,-2.82712,-1.9061823,-8.968299
1486,-2.5492535,-2.0425732,-9.183952
1487,-2.4104698,-2.0425732,-9.291928
1488,-2.1278176,-2.1816561,-9.375677
1489,-1.9480567,-2.2965117,-9.529117
1490,-1.9265213,-2.4164517,-9.725328
1491,-1.9767706,-2.5145576,-9.917053
1492,-2.1131616,-2.4738796,-10.04148
1493,-2.295315,-2.30369,-10.022338
1494,-2.6018956,-2.1457636,-9.907482
1495,-2.8917263,-1.992324,-9.890733
1496,-3.0906296,-1.7503498,-9.732507
1497,-3.2392836,-1.5586249,-9.64158
1498,-3.5291142,-1.2975081,-9.878768
1499,-3.5482569,-1.1084751,-10.235598
1500,-3.5434713,-0.87367934,-10.482358
1501,-3.5243287,-0.75613195,-10.616655
1502,-3.521936,-0.6053841,-10.566107
1503,-3.521936,-0.53359944,-10.439287
1504,-3.5961134,-0.6556334,-10.216455
1505,-3.5817564,-0.80189466,-10.094421
1506,-3.600899,-0.9023932,-9.9960165
1507,-3.4259238,-1.3600205,-9.780663
1508,-3.2560334,-1.3863416,-9.792626
1509,-2.9973094,-1.2209377,-9.857233
1510,-2.7505496,-1.0100702,-9.969695
1511,-2.501397,-0.7827521,-10.012766
1512,-2.295315,-0.552742,-10.082458
1513,-2.1278176,-0.4351946,-10.202099
1514,-1.8065811,-0.27726832,-10.278668
1515,-1.6797615,-0.31076783,-10.341181
1516,-1.6247265,-0.35623148,-10.2978115
1517,-1.6247265,-0.35623148,-10.2978115
1518,-1.8595223,-1.2424731,-10.753046
1519,-2.0557337,-1.3719847,-10.877771
1520,-2.3575284,-1.2472588,-10.8969145
1521,-2.693122,-0.95742816,-10.9352
1522,-2.9566314,-0.7728817,-10.999805
1523,-3.3086755,-0.5096712,-11.136496
1524,-3.5482569,-0.16211374,-11.356635
1525,-3.7854455,0.09182457,-11.366207
1526,-4.08724,0.28085756,-11.186745
1527,-4.3531427,0.34337005,-10.959127
1528,-4.511069,0.30987054,-10.688439
1529,-4.575974,0.14446667,-10.494322
1530,-4.453641,-0.12143575,-10.389038
1531,-4.1111684,-0.2219343,-10.463215
1532,-3.572185,-0.19561325,-10.681261
1533,-3.054737,-0.09032906,-10.975878
1534,-2.4990041,0.07986046,-11.292029
1535,-2.1254246,0.17078772,-11.591431
1536,-2.0150557,0.2425724,-11.617752
1537,-1.7060826,0.32422748,-11.850155
1538,-1.2340983,0.30987054,-12.183057
1539,-1.3779668,0.04636094,-11.96531
1540,-1.5669997,-0.05682954,-11.7209425
1541,-2.0365913,-0.13579269,-11.07159
1542,-2.5109682,-0.24616162,-10.5015
1543,-2.9685955,-0.44955155,-9.972089
1544,-3.3445678,-0.69152576,-9.562616
1545,-3.5985062,-0.91435736,-9.425926
1546,-3.682255,-1.0773684,-9.445069
1547,-3.6631124,-1.1324034,-9.567402
1548,-3.6200416,-1.0100702,-9.603294
1549,-3.478865,-0.6963114,-9.737292
1550,-3.2416766,-0.48783672,-9.780663
1551,-3.0140593,-0.38494533,-9.828519
1552,-2.882155,-0.49262238,-9.833304
1553,-2.6449664,-0.6269195,-9.936196
1554,-2.556432,-0.9000004,-9.986445
1555,-2.5612175,-1.1922239,-10.070493
1556,-2.650051,-1.3887345,-10.036695
1557,-2.6907291,-1.5059828,-9.926624
1558,-2.894119,-1.6043876,-9.675079
1559,-3.083451,-1.4940187,-9.500104
1560,-3.2679975,-1.3624134,-9.366106
1561,-3.3732817,-1.2400804,-9.296714
1562,-3.4163525,-1.2089736,-9.287143
1563,-3.3397822,-1.0893325,-9.323035
1564,-3.0332017,-1.1132607,-9.517153
1565,-2.7816563,-1.1706885,-9.809377
1566,-2.475076,-1.1467602,-9.902697
1567,-2.0868404,-1.1300105,-9.919446
1568,-1.8762721,-1.1276177,-9.943375
1569,-1.6797615,-1.1108679,-9.976874
1570,-1.5646069,-1.1443675,-10.012766
1571,-1.5622141,-1.1060823,-10.077672
1572,-1.5741782,-1.1012967,-10.123136
1573,-1.8257236,-1.0244272,-9.938589
1574,-2.0006988,-0.92153585,-9.850055
1575,-2.1565313,-0.90478605,-9.770792
1576,-2.324029,-0.89282197,-9.730114
1577,-2.6162524,-1.0124631,-9.576974
1578,-2.9422746,-1.2352947,-9.47139
1579,-3.1169505,-1.4605191,-9.480962
1580,-3.0906296,-1.5442679,-9.545867
1581,-3.0092735,-1.5804594,-9.612865
1582,-2.7960134,-1.6450655,-9.567402
1583,-2.6979074,-1.570589,-9.53151
1584,-2.566003,-1.4557334,-9.672687
1585,-2.4894328,-1.3313067,-9.691829
1586,-2.5253253,-1.2855439,-9.790234
1587,-2.6330023,-1.2831511,-9.768399
1588,-2.7649066,-1.3983058,-9.792626
1589,-2.9949167,-1.5876378,-9.720543
1590,-3.0858438,-1.6283158,-9.529117
1591,-3.1360931,-1.7718852,-9.349357
1592,-3.1743784,-1.8487546,-9.229416
1593,-2.990131,-1.9588244,-9.08824
1594,-2.82712,-2.0808585,-8.95155
1595,-2.6330023,-2.0712872,-9.104989
1596,-2.5396821,-2.1194427,-9.128918
1597,-2.268994,-2.11705,-9.425926
1598,-2.245066,-2.126621,-9.627223
1599,-2.2378874,-2.0617158,-9.823733
1600,-2.2474587,-1.9683957,-9.828519
1601,-2.4296124,-1.9301106,-9.660723
1602,-2.623431,-1.9803598,-9.500104
1603,-2.6186452,-2.0521445,-9.356535
1604,-2.6425736,-2.30369,-9.392427
1605,-2.5755744,-2.4475584,-9.452248
1606,-2.405684,-2.5648067,-9.586545
1607,-2.295315,-2.5193431,-9.632009
1608,-2.1302104,-2.3635106,-9.708579
1609,-2.1900308,-2.4188447,-9.632009
1610,-2.295315,-2.4236302,-9.428319
1611,-2.5803602,-2.5504498,-9.157631
1612,-2.8558338,-2.7110682,-8.891729
1613,-3.030809,-2.804388,-8.724232
1614,-3.478865,-3.065505,-8.367103
1615,-3.5578282,-3.0726833,-8.192427
1616,-3.6463625,-3.0296125,-8.072486
1617,-3.572185,-2.8833513,-8.0150585
1618,-3.572185,-2.8833513,-8.0150585
1619,-2.9566314,-2.3587248,-8.050951
1620,-2.6691937,-2.3204398,-8.242676
1621,-2.3841486,-2.344368,-8.4655075
1622,-2.0605195,-2.3228326,-8.719446
1623,-1.91695,-2.2725832,-8.7577305
1624,-1.7778672,-2.2342982,-8.702396
1625,-1.9384855,-2.1242282,-8.530113
1626,-2.1804597,-2.0353947,-8.1275215
1627,-2.376671,-1.9396819,-7.873583
1628,-2.568396,-1.8053846,-7.5646095
1629,-2.6668007,-1.6426728,-7.3585277
1630,-2.7936203,-1.5107684,-7.1623163
1631,-2.7816563,-1.4820545,-6.8748784
1632,-2.7649066,-1.4700904,-6.6352973
1633,-2.6377878,-1.5323038,-6.3981085
1634,-2.434398,-1.6402799,-6.3717875
1635,-2.2235305,-1.7766708,-6.227919
1636,-2.012663,-1.9588244,-6.175277
1637,-1.7443677,-2.169692,-6.1585274
1638,-1.5382859,-2.4068804,-6.1992054
1639,-1.2723835,-2.7278178,-6.4363937
1640,-1.0040882,-3.1013973,-6.5201426
1641,-0.75972116,-3.5039897,-6.74776
1642,-0.65682983,-3.6786656,-6.814759
1643,-0.45553362,-3.9158542,-6.9012
1644,-0.2856432,-3.9756749,-7.025626
1645,-0.17048861,-3.9038901,-7.171888
1646,-0.1585245,-3.7459638,-7.3322067
1647,-0.42921257,-3.56381,-7.682157
1648,-0.7190432,-3.3481572,-7.928917
1649,-1.1623136,-2.885744,-8.748159
1650,-1.591227,-2.5145576,-9.370892
1651,-2.038984,-2.0090737,-9.653543
1652,-2.3841486,-1.7096717,-9.643972
1653,-3.112165,-1.3600205,-9.442677
1654,-3.4980075,-1.3193426,-9.119347
1655,-4.0441694,-1.4772689,-8.503793
1656,-4.552046,-1.8966111,-7.873583
1657,-4.7434716,-2.167299,-7.54786
1658,-4.6956153,-2.5552354,-7.3250284
1659,-4.3890347,-2.8019953,-7.509575
1660,-3.8691943,-2.8235307,-7.9022965
1661,-3.2081769,-2.5815566,-8.34796
1662,-2.566003,-2.2917259,-8.848659
1663,-2.175674,-2.140978,-9.040383
1664,-1.3301103,-1.8559331,-9.430713
1665,-0.9346963,-1.8317057,-9.715757
1666,-0.75254273,-1.9444675,-9.8428755
1667,-0.6999006,-2.169692,-9.929018
1668,-0.8222337,-2.385345,-9.907482
1669,-1.3157533,-2.6679974,-9.952946
1670,-1.7635103,-2.7397819,-9.943375
1671,-2.2857437,-2.737389,-9.936196
1672,-2.786442,-2.521736,-9.976874
1673,-3.0882368,-2.277369,-9.921839
1674,-3.394817,-1.6642082,-9.780663
1675,-3.5243287,-1.2352947,-9.6631155
1676,-3.6224344,-0.91435736,-9.598509
1677,-3.6463625,-0.715454,-9.524331
1678,-3.6439698,-0.6197411,-9.457033
1679,-3.5147574,-0.57906306,-9.54826
1680,-3.2033913,-0.63170516,-9.665508
1681,-2.8749764,-0.7082755,-10.053743
1682,-2.6306095,-0.8856435,-10.453644
1683,-2.3889344,-1.0749756,-10.712368
1684,-2.2809582,-1.1682956,-10.925629
1685,-2.2857437,-1.2592229,-10.968699
1686,-2.417648,-1.2209377,-10.916057
1687,-2.6955147,-1.1874382,-10.753046
1688,-2.8749764,-1.1276177,-10.645369
1689,-3.5099716,-1.0387841,-10.448858
1690,-3.8524444,-1.0268201,-10.247562
1691,-4.08724,-1.0052847,-10.027123
1692,-4.221238,-0.9765707,-10.000802
1693,-4.211667,-0.79710907,-9.905089
1694,-4.1614175,-0.57906306,-9.91466
1695,-4.0178485,-0.39451665,-9.972089
1696,-3.694219,-0.19322042,-10.125528
1697,-3.2033913,-0.052043892,-10.276276
1698,-2.9108686,-0.08075777,-10.341181
1699,-2.5971098,-0.24107689,-10.405787
1700,-2.3599212,-0.53599226,-10.427323
1701,-2.1517458,-0.81864446,-10.573285
1702,-2.0916262,-0.92153585,-10.733903
1703,-2.0557337,-0.8808578,-10.709975
1704,-2.2139592,-0.8330014,-10.70519
1705,-2.3913271,-0.7704889,-10.6357975
1706,-2.5731816,-0.7537391,-10.566107
1707,-2.772085,-0.74177504,-10.631012
1708,-2.923132,-0.72023964,-10.745868
1709,-2.990131,-0.567099,-10.755439
1710,-3.0858438,-0.4854439,-10.755439
1711,-3.1193435,-0.3275176,-10.827224
1712,-3.095415,-0.068793654,-10.904093
1713,-3.138486,0.070289165,-10.9352
1714,-3.234498,0.23060828,-11.045269
1715,-3.3637104,0.2114657,-10.99502
1716,-3.4573295,0.03918247,-10.848759
1717,-3.5817564,-0.23389842,-10.63819
1718,-3.7013974,-0.48305106,-10.503893
1719,-3.6032917,-0.6436693,-10.465608
1720,-3.3278182,-0.6628119,-10.460822
1721,-3.2105699,-0.61016977,-10.412966
1722,-2.7314072,-0.4543372,-10.494322
1723,-2.3670998,-0.22671995,-10.592727
1724,-2.0964117,-0.0735793,-10.544571
1725,-1.9671993,-0.028115666,-10.448858
1726,-1.9815563,-0.052043892,-10.278668
1727,-2.0557337,-0.16211374,-10.228419
1728,-2.0078773,-0.26051855,-10.182956
1729,-2.0341983,-0.40648076,-10.319646
1730,-1.9671993,-0.37776688,-10.381859
1731,-1.9193429,-0.4016951,-10.357931
1732,-1.9145572,-0.4423731,-10.357931
1733,-1.931307,-0.51206404,-10.322039
1734,-1.9552352,-0.5910272,-10.422537
1735,-2.2666013,-0.8330014,-10.4871435
1736,-2.606681,-0.76331043,-10.484751
1737,-2.9949167,-0.66759753,-10.422537
1738,-3.5004005,-0.45912284,-10.393824
1739,-3.888337,-0.2533401,-10.23799
1740,-4.403392,-0.19082761,-9.924232
1741,-4.4656053,-0.05922236,-9.610473
1742,-4.4488554,0.10378868,-9.399606
1743,-4.4799623,0.15164514,-9.215059
1744,-4.566403,0.017347964,-8.9013
1745,-4.484748,-0.123828575,-8.848659
1746,-3.6176488,-0.83060855,-8.920443
1747,-2.9853454,-1.2496517,-9.136096
1748,-2.6401806,-1.7336,-9.24138
1749,-2.2522442,-2.1242282,-9.392427
1750,-1.943271,-2.277369,-9.596116
1751,-1.7515461,-2.2941186,-9.795019
1752,-1.6319051,-2.0425732,-9.960124
1753,-1.7084754,-1.6761723,-9.857233
1754,-2.0485554,-1.2137593,-9.512367
1755,-2.5396821,-1.0220344,-9.31825
1756,-2.8917263,-0.97178507,-9.186345
1757,-3.1839497,-0.9239286,-9.057133
1758,-3.3613176,-0.9526425,-8.903693
1759,-3.4211383,-1.1108679,-8.851051
1760,-3.246462,-1.2951152,-8.927621
1761,-3.042773,-1.5011971,-9.095418
1762,-2.7768707,-1.5251254,-9.183952
1763,-2.6572297,-1.5418751,-9.37807
1764,-2.5875385,-1.5275182,-9.598509
1765,-2.5995028,-1.3480564,-9.6631155
1766,-2.5923243,-1.1443675,-9.749257
1767,-2.6042883,-0.9741779,-9.770792
1768,-2.6668007,-0.93589276,-9.763614
1769,-2.7672994,-0.92632145,-9.648758
1770,-2.8558338,-1.16351,-9.502497
1771,-2.8749764,-1.4533406,-9.366106
1772,-2.8558338,-1.6881363,-9.34457
1773,-2.841477,-1.9468603,-9.2126665
1774,-2.8223343,-2.05693,-9.272786
1775,-2.8582265,-1.8460627,-9.351749
1776,-2.8845477,-1.6594225,-9.370892
1777,-2.9183464,-1.4605191,-9.363713
1778,-2.8223343,-1.2831511,-9.421141
1779,-2.8103702,-1.2352947,-9.47139
1780,-2.8103702,-1.3070793,-9.512367
1781,-2.8725836,-1.4437693,-9.500104
1782,-2.9398818,-1.5876378,-9.533903
1783,-2.8749764,-1.7264216,-9.509675
1784,-2.865405,-1.8511474,-9.409177
1785,-2.7816563,-1.8846469,-9.47139
1786,-2.757728,-1.8822541,-9.478569
1787,-2.71705,-1.9301106,-9.476176
1788,-2.652444,-1.951646,-9.492926
1789,-2.7290142,-2.0210378,-9.512367
1790,-2.7433712,-2.018645,-9.565009
1791,-2.8606195,-1.96361,-9.574581
1792,-2.9733813,-1.9348962,-9.612865
1793,-2.9398818,-1.9755741,-9.689436
1794,-2.9853454,-1.937289,-9.696614
1795,-2.9877381,-1.9899311,-9.689436
1796,-3.0643084,-2.097608,-9.646365
1797,-3.152843,-2.2797618,-9.593723
1798,-3.2153554,-2.44038,-9.54826
1799,-3.3924243,-2.6823542,-9.495318
1800,-3.4980075,-2.9120653,-9.385248
1801,-3.5243287,-3.0583265,-9.368499
1802,-3.5482569,-3.1516466,-9.423533
1803,-3.3900316,-3.1902308,-9.442677
1804,-3.2799616,-3.158825,-9.406784
1805,-3.2153554,-3.2452657,-9.397213
1806,-3.1289146,-3.283551,-9.425926
1807,-3.0332017,-3.281158,-9.2895355
1808,-2.9709885,-3.24048,-9.157631
1809,-3.0020952,-3.2189445,-8.874979
1810,-2.990131,-3.12054,-8.546864
1811,-3.004488,-3.144468,-8.216354
1812,-2.8869405,-3.0678978,-7.90469
1813,-2.8462625,-3.0272198,-7.804191
1814,-2.611467,-2.8354948,-7.698907
1815,-2.3192434,-2.562414,-7.806584
1816,-1.9887347,-2.3228326,-7.9480596
1817,-1.6630118,-2.0521445,-8.079665
1818,-1.483251,-1.8436699,-8.218747
1819,-1.1742777,-1.6211374,-8.314461
1820,-1.1766706,-1.6091732,-8.273783
1821,-1.2053844,-1.7503498,-8.139485
1822,-1.4880366,-1.8077775,-7.9337025
1823,-1.8906289,-1.910968,-7.6749787
1824,-2.2809582,-1.937289,-7.3178496
1825,-2.6572297,-2.0282164,-6.9418774
1826,-2.8917263,-2.0688944,-6.580262
1827,-2.9781668,-2.1625135,-6.3191457
1828,-2.94706,-2.2271197,-6.2327046
1829,-2.7649066,-2.3925235,-6.172884
1830,-2.3599212,-2.4068804,-6.3478594
1831,-2.0844476,-2.4092734,-6.5464635
1832,-1.8329022,-2.4068804,-6.6424756
1833,-1.6486548,-2.6246274,-6.802795
1834,-1.4018949,-2.7565317,-6.922735
1835,-1.1240284,-2.914458,-7.140781
1836,-0.9921241,-3.0008986,-7.265208
1837,-0.93708915,-3.0415766,-7.452147
1838,-0.90358967,-3.01047,-7.4593253
1839,-1.0857433,-2.7948167,-7.6630144
1840,-1.3971093,-2.5265217,-7.983952
1841,-1.6558332,-2.3539393,-8.27139
1842,-2.0365913,-2.2175484,-8.391031
1843,-2.3718855,-2.0545373,-8.446364
1844,-2.7074788,-1.8317057,-8.434102
1845,-2.9303105,-1.7240287,-8.278568
1846,-3.2105699,-1.7264216,-7.952845
1847,-3.5004005,-1.8221345,-7.698907
1848,-3.6487553,-1.9492532,-7.5670023
1849,-3.7181473,-2.2223341,-7.641479
1850,-3.493222,-2.495415,-7.9408813
1851,-3.112165,-2.6751757,-8.405388
1852,-2.6282165,-2.6413772,-8.803194
1853,-2.0748763,-2.4690938,-9.11456
1854,-1.6319051,-2.30369,-9.406784
1855,-1.2149557,-2.169692,-9.485747
1856,-1.0351949,-2.097608,-9.557831
1857,-0.9705887,-2.0401804,-9.632009
1858,-1.2077773,-2.0880368,-9.51476
1859,-1.5669997,-2.2055843,-9.497711
1860,-1.9145572,-2.2438695,-9.457033
1861,-2.2857437,-2.2821546,-9.418748
1862,-2.6596224,-2.274976,-9.270393
1863,-2.894119,-2.2725832,-9.265608
1864,-3.3804603,-2.2414765,-9.399606
1865,-3.7710886,-2.1457636,-9.591331
1866,-3.8524444,-1.9325033,-9.710972
1867,-3.95055,-1.82692,-9.806984
1868,-3.926622,-1.7096717,-9.912268
1869,-3.8237305,-1.5804594,-10.000802
1870,-3.7280176,-1.4940187,-10.024731
1871,-3.6846478,-1.6211374,-9.91466
1872,-3.6224344,-1.6570296,-9.976874
1873,-3.5793636,-1.7431713,-9.998409
1874,-3.4043884,-1.6881363,-9.797412
1875,-3.0810583,-1.6283158,-9.754043
1876,-2.8199415,-1.5155541,-9.770792
1877,-2.5588248,-1.3648062,-9.773185
1878,-2.3814569,-1.3169497,-9.897911
1879,-2.14696,-1.1371889,-10.039087
1880,-2.0150557,-0.9622138,-10.30499
1881,-1.8978075,-0.7680961,-10.479965
1882,-1.8834505,-0.61016977,-10.7793665
1883,-1.9743778,-0.5694918,-10.892129
1884,-2.1661026,-0.53599226,-10.894522
1885,-2.5995028,-0.63170516,-10.67169
1886,-2.9733813,-0.79710907,-10.463215
1887,-3.2009985,-0.9000004,-10.285848
1888,-3.5626137,-1.0510473,-10.139885
1889,-3.6176488,-1.0244272,-10.197312
1890,-3.7157545,-0.959821,-10.125528
1891,-3.5386856,-0.70348984,-10.142278
1892,-3.3230324,-0.44955155,-10.168599
1893,-3.1193435,-0.2724827,-10.283454
1894,-2.9084759,-0.09750752,-10.432109
1895,-2.7314072,0.09661021,-10.513465
1896,-2.5875385,0.12053844,-10.659726
1897,-2.4655046,0.12532409,-10.7482605
1898,-2.4248266,-0.030508488,-10.769795
1899,-2.4535406,-0.34187454,-10.690832
1900,-2.6282165,-0.70348984,-10.551749
1901,-2.8462625,-1.0411769,-10.44168
1902,-3.0619156,-1.2065809,-10.4464655
1903,-3.3924243,-1.1802598,-10.381859
1904,-3.5626137,-0.9382856,-10.403395
1905,-3.5769708,-0.60777694,-10.626226
1906,-3.5362928,-0.33230326,-10.863415
1907,-3.2727833,0.2760719,-11.356635
1908,-3.2392836,0.45104706,-11.397613
1909,-3.124129,0.7576275,-11.59861
1910,-3.1073792,0.8150552,-11.553146
1911,-3.083451,0.71455663,-11.3829565
1912,-3.083451,0.35294133,-11.097912
1913,-3.0762727,0.2330011,-11.026127
1914,-2.9542387,-0.1477568,-10.599905
1915,-2.8917263,-0.2724827,-10.312168
1916,-2.7098715,-0.41605204,-10.125528
1917,-2.5085754,-0.47347978,-10.106385
1918,-2.3216362,-0.6149554,-10.1446705
1919,-2.1083758,-0.71306115,-10.317253
1920,-2.0198414,-0.80189466,-10.429716
1921,-2.0988045,-0.8234301,-10.472787
1922,-2.2211375,-0.89282197,-10.417751
1923,-2.4846473,-0.79950184,-10.204492
1924,-2.7625136,-0.76331043,-10.125528
1925,-3.1480572,-0.73459655,-9.98166
1926,-3.234498,-0.6771688,-9.945767
1927,-3.330211,-0.66041905,-9.905089
1928,-3.3876386,-0.5766702,-9.938589
1929,-3.411567,-0.5455636,-9.921839
1930,-3.382853,-0.5479564,-9.885947
1931,-3.3780673,-0.5069793,-9.804591
1932,-3.2656047,-0.497408,-9.787841
1933,-3.1193435,-0.46151567,-9.713365
1934,-2.9374888,-0.49022955,-9.584152
1935,-2.7960134,-0.5383851,-9.610473
1936,-2.6210382,-0.73459655,-9.703794
1937,-2.5396821,-0.9167502,-9.763614
1938,-2.420041,-1.0869397,-9.847662
1939,-2.3336003,-1.3360924,-9.91466
1940,-2.475076,-1.3432708,-9.881161
1941,-2.6042883,-1.2783655,-9.763614
1942,-2.8630123,-1.1371889,-9.818948
1943,-3.0738797,-1.0411769,-9.876375
1944,-3.342175,-1.0196415,-9.845269
1945,-3.437888,-0.9741779,-9.847662
1946,-3.519543,-0.9406784,-9.792626
1947,-3.6080775,-0.91435736,-9.600902
1948,-3.6056845,-0.94307125,-9.303893
1949,-3.4860435,-1.0654043,-9.076276
1950,-3.2201412,-1.2592229,-8.788837
1951,-2.9012976,-1.4820545,-8.740981
1952,-2.5396821,-1.7814565,-8.717052
1953,-2.02702,-2.018645,-8.745767
1954,-1.6007984,-2.1095722,-8.863015
1955,-1.1742777,-2.2127628,-9.037991
1956,-0.8389834,-2.0880368,-9.260822
1957,-0.5491528,-1.910968,-9.490533
1958,-0.30957142,-1.6378871,-9.823733
1959,-0.2976073,-1.4030914,-10.099207
1960,-0.41724846,-1.2568301,-10.216455
1961,-0.73579293,-1.2735798,-10.233205
1962,-1.3564314,-1.4916258,-10.125528
1963,-1.6654046,-1.6737795,-10.173385
1964,-2.6090739,-2.0090737,-9.924232
1965,-3.1839497,-2.2558336,-9.627223
1966,-3.600899,-2.414059,-9.430713
1967,-4.0513477,-2.4858437,-9.24138
1968,-4.3268213,-2.3491535,-9.291928
1969,-4.44407,-1.9277177,-9.425926
1970,-4.3794637,-1.3360924,-9.64158
1971,-4.2188454,-0.878465,-9.787841
1972,-3.9433718,-0.6795616,-9.960124
1973,-3.5937204,-0.7923234,-10.235598
1974,-3.246462,-1.1539388,-10.422537
1975,-3.1217363,-1.5394822,-10.362717
1976,-2.992524,-2.1314068,-10.197312
1977,-2.786442,-2.5002005,-10.019945
1978,-2.6282165,-2.6006992,-9.847662
1979,-2.3575284,-2.5839493,-9.766006
1980,-1.9887347,-2.3973093,-9.7348995
1981,-1.6630118,-2.1457636,-9.75165
1982,-1.468894,-1.9803598,-9.806984
1983,-1.2197413,-1.7216359,-9.893126
1984,-1.0857433,-1.6881363,-10.010373
1985,-1.2867404,-1.937289,-9.890733
1986,-1.5071791,-2.2319052,-9.862019
1987,-1.8786649,-2.5767708,-9.75165
1988,-2.0844476,-2.7613173,-9.68465
1989,-2.7409782,-3.1396823,-9.195916
1990,-3.1504502,-3.2883365,-8.695218
1991,-3.452544,-3.1803603,-8.479864
1992,-3.6032917,-2.8426733,-8.422137
1993,-3.6320057,-2.4332016,-8.338388
1994,-3.6583266,-2.2606192,-8.438888
1995,-3.4283166,-2.07368,-8.479864
1996,-3.1890345,-2.1242282,-8.635398
1997,-2.8319056,-2.3060827,-8.637791
1998,-2.6210382,-2.5576284,-8.510971
1999,-2.3865414,-2.7493532,-8.312068
2000,-2.2594228,-2.8642087,-8.1682
