,ax,ay,az
501,-4.894519,-14.27887,-3.1785657
502,-10.641181,-25.197618,-12.789338
503,-16.275381,-37.465023,-19.427326
504,-8.056634,-38.506798,-6.3478594
505,1.1111671,-25.058537,6.7483582
506,2.5938199,-20.178972,-2.673082
507,1.0223335,-19.34298,-13.371392
508,3.6430724,-20.193329,-21.29343
509,16.394424,-22.823639,-22.785654
510,22.797617,-30.886854,-17.716759
511,20.725433,-33.157642,-15.477076
512,10.621141,-37.04329,-16.966908
513,10.578071,-37.560734,20.16312
514,12.8010025,-33.476486,34.289448
515,6.4408803,-24.78067,53.563633
516,-1.1790633,-21.501307,55.180584
517,-16.773687,-16.403696,29.793036
518,-21.682262,-10.022038,13.523037
519,-13.446466,-6.1196437,15.173487
520,-1.6199409,-5.341378,17.24298
521,4.246662,-4.546064,16.855043
522,6.515357,-2.8498518,14.160126
523,8.9013,-1.4844474,10.499705
524,10.374382,-2.521736,3.1360931
525,9.322736,-3.8775692,-1.5999011
526,7.952546,-3.8081772,-2.4382863
527,3.9975092,-3.743571,-0.44775695
528,1.2140584,-2.9817562,-0.25124636
529,-0.098703936,-0.8665009,-2.361716
530,-0.20638095,-0.04007978,-3.3436706
531,0.34456646,1.5194423,-3.6409788
532,-0.11066805,2.4849463,-4.2134614
533,-0.26650062,2.4296124,-1.5233307
534,0.0041874396,1.7997017,0.28295127
535,-0.3382853,-1.340878,3.100201
536,-0.4435695,-3.9230328,3.6320057
537,0.7325028,-7.056434,2.7047868
538,3.2910285,-14.345869,2.714358
539,12.511172,-53.92196,15.496817
540,6.187241,-77.65906,5.8597236
541,-6.7582283,-77.65906,10.200304
542,-26.056343,-53.08836,10.619646
543,-14.06202,-31.924143,4.1228333
544,-5.1795635,-20.777777,5.965008
545,4.127021,-18.921246,7.75454
546,17.448463,-16.964214,-7.602895
547,13.677973,-11.976676,-9.732507
548,3.257529,-7.765607,-6.172884
549,1.8200407,-2.3108685,-6.079564
550,4.141378,0.22582264,-6.465108
551,3.4513476,7.0435724,-9.442677
552,0.8258229,10.07139,-11.109876
553,-2.6306095,12.41187,-11.553146
554,-8.542975,13.048959,-11.256137
555,-8.621938,12.107682,-16.751553
556,-5.637191,10.478768,-21.25963
557,-2.9997022,9.961321,-19.887049
558,-1.2149557,9.017352,-15.975381
559,0.17437695,6.3511496,-10.249955
560,0.552742,3.2297122,-7.260422
561,0.03798606,-0.9502497,-3.8324046
562,-1.4617156,-3.6355948,-2.0455642
563,-2.4726832,-4.1889353,0.9705887
564,-4.2068815,-4.807181,1.1165509
565,7.7799635,-8.714062,78.709206
566,-0.18723837,-14.765211,52.46413
567,-7.8696947,-19.321445,-17.96591
568,6.6445694,-12.182757,-22.205992
569,2.4382863,-17.539091,-0.27996024
570,-2.5612175,-21.081964,5.5459647
571,-7.0504518,-20.864218,-10.249955
572,-10.576575,-25.77728,-9.457033
573,-8.794222,-29.542984,-4.7859445
574,-2.676372,-23.666811,2.5707889
575,0.16719848,-18.880568,-18.634405
576,-0.084346995,-19.132113,-17.798115
577,4.658826,-18.609879,-19.867905
578,15.354743,-18.523737,-23.889942
579,23.281267,-24.371199,-19.7028
580,21.954147,-30.127432,-18.83301
581,9.217452,-34.920853,-12.343675
582,5.7391853,-39.814774,-15.637395
583,6.992127,-44.00461,2.6258237
584,-0.72382885,-43.96632,62.240307
585,-12.84527,-23.182861,55.791653
586,-23.435604,-20.071295,34.08815
587,-25.737799,-14.666806,19.135702
588,-12.813865,-7.1784678,12.562319
589,-3.6774693,-5.6910295,15.860825
590,2.3494527,-3.4223347,13.367205
591,6.4145594,-2.0521445,10.727323
592,13.455141,-0.7178468,5.8190455
593,14.410774,-1.4844474,2.0365913
594,13.050156,-2.3012972,-1.7075781
595,9.205488,-2.6461627,-1.329213
596,4.936692,-2.521736,0.6014958
597,2.0093727,-1.8029919,-0.20817557
598,1.0127622,-0.8425727,-0.84047896
599,0.663111,0.69302124,-1.9734805
600,0.5024927,1.564906,-2.7472596
601,0.1576272,2.1541386,-1.492224
602,-1.1048858,1.782952,0.48424748
603,-1.9336998,0.067896344,2.975475
604,-1.6342978,-3.8847475,4.0438704
605,-0.73100734,-7.382157,2.8558338
606,0.83090764,-14.506487,1.8281165
607,4.2610188,-27.741488,10.406385
608,1.8391833,-72.31947,0.4316054
609,-8.964411,-77.48647,1.6627127
610,-21.763618,-60.471413,14.366208
611,-24.075384,-44.939003,4.999803
612,-12.107384,-26.110182,3.7396827
613,-3.4331024,-19.596918,10.0830555
614,10.436595,-17.9031,5.5052867
615,18.622143,-15.5748825,-5.9500527
616,9.68465,-12.182757,-5.4684973
617,2.0380867,-6.050252,-4.465007
618,3.460919,-3.0272198,-4.534399
619,5.6120663,2.1879373,-8.752945
620,3.8108692,7.6495547,-10.027123
621,0.86201435,11.877672,-9.864411
622,-3.545864,13.281363,-12.6167555
623,-5.191528,12.823734,-11.756835
624,-4.813163,11.681162,-19.336102
625,-3.5961134,11.003395,-20.052452
626,-1.6295122,9.68824,-16.523935
627,-0.30000013,7.7333035,-13.088739
628,1.4177474,5.213362,-9.701401
629,-0.17527425,2.1326032,-5.45414
630,-0.88205427,0.032004002,-4.42403
631,-1.7970098,-2.6943183,-3.3583267
632,-2.935096,-4.0788655,-0.74476606
633,-2.9949167,-4.725526,0.7070791
634,-2.9422746,-5.6527443,1.9381863
635,4.357031,-12.736097,62.08926
636,-9.989736,-16.221542,-21.801006
637,1.4057833,-8.120044,-21.501606
638,-1.4210376,-11.514562,1.1237293
639,-8.899805,-18.930817,25.521847
640,-1.5191432,-15.783358,-20.72304
641,-11.003096,-34.310085,-13.694722
642,-10.919048,-41.858246,-11.881262
643,-3.7471602,-27.216862,-10.79851
644,2.0117657,-21.02693,-14.705689
645,4.9510493,-19.532312,-15.254245
646,9.227023,-17.778673,-18.061623
647,13.697115,-20.198114,-15.594324
648,17.479568,-23.55674,-14.504394
649,23.52085,-27.760632,-14.078172
650,16.614565,-31.480871,-18.286848
651,9.382557,-37.02654,-3.4420755
652,8.817252,-37.992043,16.220346
653,4.8625145,-35.321053,39.820755
654,-14.624932,-27.736702,64.18059
655,-22.788944,-23.307589,37.561634
656,-26.758337,-15.481263,19.535603
657,-17.173887,-8.3835535,12.770794
658,-7.8840513,-7.2409806,15.822539
659,-0.7716853,-4.742275,17.55943
660,3.295814,-3.3074791,16.090836
661,10.676176,-1.1946167,6.053841
662,14.475381,-1.340878,-3.5306098
663,13.339986,-2.3949163,-6.343074
664,7.820941,-2.3491535,-4.2780676
665,4.275376,-1.5876378,-0.581755
666,2.3255246,-0.72263247,0.80757767
667,1.1949158,0.5395815,0.3786642
668,1.07019,1.5026926,-0.52193445
669,0.3062813,2.2884357,-1.4344971
670,-0.14416756,2.134996,-1.2861422
671,-0.9083753,2.0416758,4.8439703
672,-1.6414764,1.3854443,9.682856
673,-1.3899308,0.27128628,7.4359956
674,-0.5491528,-4.423731,0.43639103
675,1.5804594,-5.712565,0.012263216
676,3.2479577,-9.475877,-1.7581264
677,11.857333,-41.07011,13.779368
678,7.6483583,-77.65906,10.147662
679,-10.89512,-77.65906,15.729219
680,-23.72065,-60.55277,13.697713
681,-21.104696,-44.14369,5.871688
682,-7.998907,-22.615166,5.150551
683,-4.267001,-19.30948,9.431311
684,12.985549,-16.556837,-2.3569303
685,14.820545,-14.659628,-12.525828
686,6.2063837,-11.564811,-7.1072817
687,0.12173485,-5.3365927,-8.499007
688,1.0773684,-0.6795616,-7.797013
689,4.6803613,4.302893,-8.520542
690,3.8874395,9.388538,-11.227423
691,0.552742,12.01167,-13.991732
692,-2.853441,14.31865,-13.809876
693,-4.659723,12.883855,-15.613467
694,-3.8739798,11.726625,-18.22942
695,-3.1049864,10.260722,-18.926628
696,-2.0676978,9.062816,-17.757437
697,-0.67836523,6.710372,-14.334503
698,0.15284155,4.8251266,-9.02124
699,-0.2952145,0.37208393,-3.8467615
700,-0.98973125,-2.6198416,-2.8624141
701,-1.5936198,-3.3170505,-1.5711871
702,-4.130311,-4.2777686,0.8147561
703,-5.3856454,-5.1999025,0.49142596
704,5.511568,-12.072687,78.709206
705,-0.21355942,-13.385449,48.835117
706,-0.95383894,-18.96671,8.616854
707,6.632605,-9.878469,-35.400314
708,3.987938,-14.84896,-1.4464613
709,-2.7816563,-23.506193,23.318056
710,-3.3804603,-21.970898,-17.91566
711,-8.523534,-28.414768,-14.892629
712,-11.5157585,-37.00261,-5.2193446
713,-6.5832534,-30.506096,-1.1303096
714,0.20548365,-19.9035,-16.804195
715,2.3949163,-18.681664,-16.914265
716,4.1892343,-18.609879,-18.763618
717,7.4422765,-21.084356,-16.780268
718,11.919547,-22.080967,-15.168102
719,18.64607,-27.473194,-12.010774
720,15.927226,-31.777882,-12.686148
721,10.043873,-34.317265,-16.511972
722,6.7405815,-38.741592,5.1457653
723,1.6836498,-33.54827,44.975792
724,-7.7066836,-26.40719,70.178795
725,-20.132313,-20.734705,48.192944
726,-28.19792,-16.734205,26.822645
727,-23.869303,-9.18126,11.429317
728,-8.418249,-6.3544397,12.049657
729,-1.6917256,-4.2511487,15.343377
730,4.435994,-1.8221345,13.798511
731,9.667901,0.18753748,9.115159
732,13.718651,-0.70588267,0.7501499
733,14.077873,-1.8005991,-3.5377884
734,10.616356,-2.0090737,-5.6793647
735,7.6076803,-1.3719847,-3.0996027
736,3.0610185,-0.83060855,-0.4334
737,1.1135598,0.3792624,0.802792
738,0.79710907,1.0546366,0.47706902
739,0.8333005,1.7255242,-0.41665024
740,0.0738784,1.4763715,-0.4645067
741,-0.30239296,1.457229,-0.03798606
742,-1.076172,1.2655041,4.484748
743,-2.2115662,0.84406817,8.322237
744,-2.134996,-1.489233,4.9543395
745,-1.0304092,-4.560421,-0.5697909
746,1.6115661,-6.433702,-1.137488
747,3.8706896,-7.341479,-5.0135617
748,4.045665,-25.41088,7.9534435
749,4.1174498,-77.65906,15.971194
750,-9.371789,-77.65906,12.404094
751,-19.55265,-73.10761,5.347061
752,-13.293027,-37.86492,5.296812
753,-6.5904317,-23.367409,12.710973
754,-1.3157533,-17.79303,4.810471
755,12.515958,-13.481163,-6.220741
756,13.519747,-12.882359,-12.245569
757,0.4546363,-7.887641,-7.0375905
758,-2.2713869,-4.4524446,-10.106385
759,0.17676978,0.02213361,-9.8835535
760,1.6788642,5.761917,-10.034302
761,0.93619186,10.090533,-12.3149605
762,-1.0642079,13.511373,-15.199209
763,-3.6631124,14.948562,-15.594324
764,-3.5769708,13.913666,-18.749262
765,-4.0513477,11.860923,-20.282461
766,-3.2033913,10.092926,-17.168203
767,-1.2867404,8.272287,-13.524532
768,-0.13459627,6.425327,-6.788438
769,0.030807592,4.0755754,-4.0719857
770,-0.75972116,1.3830515,-2.9676983
771,-1.6917256,-1.1276177,-1.1303096
772,-2.25703,-2.2989044,0.024227329
773,-3.8476589,-3.7507496,1.0447662
774,3.1519456,-9.64128,70.966934
775,-2.245066,-14.379369,42.402912
776,1.5972091,-20.46641,18.531813
777,13.57239,-13.085749,-32.71736
778,1.6019948,-11.315659,-13.622937
779,-2.134996,-9.075976,-4.7596235
780,-3.8620157,-12.256935,-5.298607
781,-10.11177,-25.549664,-11.327922
782,-16.766508,-44.998825,-12.542578
783,-11.994621,-41.04618,-4.534399
784,-0.30957142,-26.591738,-0.009272188
785,-0.60658056,-20.330019,-14.470894
786,1.4033905,-18.717855,-18.020945
787,3.255136,-20.554945,-17.874983
788,5.2049875,-21.285652,-18.361324
789,10.695319,-27.463621,-11.81187
790,13.059727,-30.56113,-9.98166
791,16.056438,-32.95186,-6.0604215
792,12.523136,-32.26422,17.17598
793,12.47528,-30.194431,26.195127
794,0.7540382,-24.934109,41.26273
795,-10.332209,-21.942184,42.22345
796,-18.781265,-17.946468,35.2382
797,-22.71686,-10.455738,15.319448
798,-18.591932,-6.078966,9.316455
799,-5.994021,-4.0980077,16.184454
800,-1.4234303,-3.6236308,17.858831
801,4.7306104,-3.6667016,16.926826
802,10.525429,-2.9195428,13.50868
803,13.800007,-3.2476585,5.265705
804,11.02852,-5.468198,-1.6357933
805,8.453244,-5.6671014,-3.3149567
806,4.069593,-4.478766,-1.5448661
807,1.6283158,-2.725425,-1.5089738
808,0.6008976,-0.7680961,-1.9184456
809,0.12173485,0.57816577,-2.699403
810,0.0017946169,1.6704893,-3.9212382
811,-0.21595225,2.5878377,-4.239783
812,-0.75972116,2.3841486,-2.2561326
813,-0.5276174,2.4634109,-0.8859426
814,-3.0858438,-3.362514,3.2700913
815,-1.4784653,-4.677669,2.6736803
816,-0.9083753,-5.046463,2.2809582
817,-0.14177474,-18.12593,-0.89312106
818,5.406284,-43.202114,-10.113564
819,-3.6750765,-77.40752,11.637792
820,-17.739191,-74.14729,12.322738
821,-23.196022,-50.184967,14.272589
822,-10.097412,-32.817562,10.729716
823,-3.1743784,-21.534805,5.2250276
824,1.1255239,-16.001104,10.736895
825,14.647963,-14.221442,-6.230312
826,17.491533,-12.676277,-10.882557
827,4.1724844,-7.882855,-5.2890353
828,1.0582259,-2.0832512,-5.28425
829,1.8224336,1.9220347,-5.4999027
830,2.3135605,4.822734,-7.533503
831,0.70618176,7.7261252,-10.906486
832,-1.21017,10.93849,-9.665508
833,-2.0700908,11.463116,-10.906486
834,-4.0274196,10.744671,-20.981764
835,-4.0968113,10.385149,-21.911377
836,-3.4187453,10.133604,-17.498713
837,-2.0150557,8.729915,-14.372788
838,-0.6831509,7.136893,-11.059627
839,-1.1527423,4.9929237,-7.5981092
840,-1.4138591,1.7901305,-5.293821
841,-1.5287145,-0.15972091,-4.436293
842,-3.1289146,-3.3553355,-1.1829517
843,-4.2717867,-4.176971,0.03379862
844,-3.4259238,-5.0946183,2.0485554
845,4.5894337,-13.500305,76.50781
846,7.004091,-19.041185,43.54339
847,10.800902,-13.957932,-26.558537
848,4.124628,-13.629817,-10.482358
849,-0.587438,-16.997715,9.000303
850,-6.6406813,-21.99004,-14.379967
851,-11.941979,-25.233511,-17.364714
852,-15.561722,-30.24498,-14.837295
853,-5.869594,-22.44019,-1.1398809
854,1.5158532,-17.58934,-2.8480573
855,2.0045872,-17.32583,-11.474183
856,3.990331,-17.944077,-15.635002
857,5.6817575,-19.010078,-18.291634
858,9.602996,-20.617456,-16.140486
859,16.305592,-24.922146,-13.780864
860,19.307386,-30.426834,-13.160524
861,9.535996,-33.71607,-11.972488
862,5.7750773,-35.10301,-14.19542
863,5.6745787,-37.091145,-6.4627147
864,2.644069,-34.88496,40.848473
865,-9.2997055,-24.090939,78.49595
866,-16.52932,-17.543877,42.489353
867,-25.692335,-13.356736,19.274485
868,-19.74647,-6.2108703,8.482856
869,-12.279667,-3.700201,10.935798
870,-5.2872405,-1.8388842,18.455242
871,2.8549366,-0.5069793,15.331413
872,11.677572,-1.7216359,8.969196
873,14.702998,-2.7397819,5.514858
874,14.008481,-4.3375893,-1.302892
875,9.909575,-4.1147575,-2.6084757
876,5.9213386,-2.9386854,-0.2847459
877,2.6919255,-2.4068804,-0.07148558
878,0.39720857,-1.1802598,-1.0417751
879,-0.17766708,0.03918247,-2.0647068
880,-0.17048861,1.1769696,-2.577369
881,0.36370903,2.528017,-3.0083764
882,-0.5922236,2.2286153,-1.9710877
883,-1.9193429,1.5457634,0.47946185
884,-3.1289146,0.73130643,2.4795625
885,-3.1169505,-2.5145576,3.9194436
886,-1.820938,-4.3495536,3.6559339
887,-0.66161543,-7.839784,0.90807617
888,0.22462623,-14.662021,3.8907297
889,4.8095737,-72.17321,16.562819
890,-3.0738797,-77.65906,-2.2752752
891,-17.046768,-70.7767,8.64796
892,-11.597114,-40.140797,9.963116
893,-7.539186,-27.042187,9.896116
894,-4.2260237,-19.388443,9.824331
895,4.9606204,-14.470595,3.140879
896,17.316559,-12.973287,-10.695618
897,7.576574,-11.128719,-7.8759756
898,1.5254245,-8.939286,-5.918946
899,-1.4258232,-1.4389837,-9.174381
900,0.63918275,1.6199409,-9.576974
901,0.21266212,6.2530437,-9.895518
902,0.6798607,9.958928,-12.267104
903,-0.7477571,11.044073,-13.637295
904,-2.094019,10.747064,-13.728222
905,-2.6473591,10.10489,-16.962122
906,-2.6907291,9.201899,-17.127525
907,-2.3288147,7.556235,-14.209777
908,-2.0676978,6.890133,-12.2838545
909,-0.87248296,6.847062,-7.5119677
910,-0.33349967,5.515157,-5.6506505
911,-1.3325031,2.1565313,-3.5042887
912,-2.3889344,-0.74416786,-0.89312106
913,-2.6449664,-1.7455641,1.0328021
914,-2.951846,-2.6006992,1.9932213
915,-1.198206,-3.5997026,24.805794
916,1.1853445,-13.181761,60.870117
917,-4.820341,-18.894924,-18.672691
918,7.2915287,-5.4873405,-26.68087
919,0.8138588,-8.347661,-2.2010977
920,-1.1862419,-10.285548,-3.5377884
921,-5.0623155,-20.72992,-9.3613205
922,-13.381861,-38.767914,-17.64976
923,-17.988344,-53.210392,-21.32693
924,-1.7946169,-34.770107,1.4880366
925,2.5842485,-24.859632,-6.8916283
926,3.3173494,-21.422342,-16.231712
927,7.5068827,-21.35026,-20.421246
928,15.69243,-22.399511,-22.562822
929,19.08934,-28.280472,-15.44597
930,15.210875,-29.753853,-12.116057
931,13.972589,-28.987251,-9.140882
932,11.98176,-30.55156,11.055439
933,10.412667,-31.33491,22.525135
934,5.727221,-29.145477,35.84897
935,-10.928619,-23.939892,54.878788
936,-20.383858,-20.61028,41.564526
937,-25.998915,-13.893327,17.997616
938,-21.085552,-7.003792,2.2857437
939,-10.923834,-2.9673991,9.146265
940,-6.1331034,-2.5313072,16.967505
941,-0.5706882,-3.2069805,15.777076
942,5.8731833,-4.981857,16.524534
943,11.224731,-4.0788655,16.114763
944,13.52214,-3.6810586,5.8692946
945,12.374782,-4.4165525,-3.4133615
946,9.787542,-3.9565322,-4.182355
947,6.3978095,-2.6919255,-3.0681968
948,4.060022,-1.5442679,-2.864807
949,2.1867409,0.07986046,-2.9389844
950,1.1590235,1.2248261,-3.147459
951,0.36131623,1.9244276,-2.8959136
952,-0.28803602,1.5074782,-2.1460629
953,-1.4784653,2.056033,-1.3339987
954,-2.556432,1.8451654,-0.99631155
955,-1.9695921,0.30029923,-0.61764735
956,-1.495215,-5.1209397,1.114158
957,1.3313067,-5.928218,-0.9385847
958,2.5818555,-6.7594247,-3.5904303
959,2.3925235,-27.224041,1.7105691
960,-1.0136595,-68.72845,-9.950553
961,-5.9270215,-77.65906,29.836405
962,-24.365215,-67.40851,23.157738
963,-21.054447,-37.704304,10.808679
964,-13.743476,-27.305696,3.682255
965,-2.312065,-18.10918,2.1011975
966,0.48095736,-14.472988,4.1757746
967,18.65325,-12.990036,-14.130815
968,13.943875,-10.893924,-6.8629146
969,1.0342976,-4.2681975,-6.9801626
970,0.08344969,-0.6149554,-6.1322064
971,0.73011,1.9220347,-7.2843504
972,2.9243283,6.3774705,-9.850055
973,2.9748766,8.859426,-9.5048895
974,0.4019942,11.518151,-11.213066
975,-2.5061827,11.022537,-11.835798
976,-3.5817564,10.576875,-15.175282
977,-3.0523443,9.429516,-19.934904
978,-1.7347964,7.8197446,-17.67608
979,0.8500503,6.4420767,-15.201602
980,1.8966111,5.9153566,-10.805688
981,0.73011,3.6011982,-6.4866433
982,0.21505493,-0.59581286,-4.733302
983,-0.22073789,-1.7934206,-3.664907
984,-2.9303105,-3.4223347,-0.16749759
985,-4.194917,-4.706383,0.9514461
986,2.9004002,-4.569992,51.445988
987,-3.7615173,-14.846567,43.394737
988,-9.932307,-16.197615,-24.888945
989,3.2069805,-6.450452,-15.400506
990,0.8452646,-6.419345,-1.57358
991,0.011365907,-6.0526447,-1.8251255
992,-0.80548394,-16.39891,-10.44168
993,-13.475181,-34.880177,-21.707687
994,-18.340387,-48.49384,-20.490936
995,-4.3268213,-37.931923,-1.8131614
996,3.6478581,-27.425337,-4.2014976
997,3.4082768,-24.102903,-11.534003
998,6.0194445,-24.268007,-17.26631
999,12.858431,-24.76392,-22.194029
1000,18.056837,-28.350163,-18.81626
1001,17.917755,-31.14797,-16.193129
1002,12.353246,-33.29194,-3.1498518
1003,12.499208,-32.180473,10.636395
1004,10.436595,-27.494728,30.497421
1005,5.8875403,-22.030718,32.459236
1006,0.31106696,-21.831814,34.39503
1007,-17.221743,-19.982462,35.750862
1008,-22.192533,-15.792929,23.74697
1009,-24.065813,-8.079366,9.026625
1010,-17.121244,-4.974678,9.098409
1011,-6.4612193,-3.1061828,14.428421
1012,-0.60658056,-2.574378,15.02244
1013,5.2480583,-2.9482565,13.168302
1014,10.340882,-3.5829527,14.746966
1015,12.992728,-2.8259234,11.817254
1016,13.287344,-2.8785655,6.087341
1017,10.05823,-3.513561,-5.253143
1018,7.303493,-2.8115666,-4.1174498
1019,2.8166513,-1.7790636,-2.1245275
1020,0.8572287,-0.70348984,-1.6621144
1021,0.5168497,-0.023330022,-2.076671
1022,0.14327025,1.4883357,-3.3053854
1023,-0.66400826,1.768595,-3.5306098
1024,-1.1144571,1.7398812,-2.1891336
1025,-1.6295122,1.5026926,-1.3794622
1026,-1.6223338,1.4356936,-1.0752747
1027,-0.7815557,-2.0784655,2.2112672
1028,-0.69272214,-4.109972,2.324029
1029,0.2222334,-5.8250275,0.22552353
1030,2.2848465,-15.598811,11.204093
1031,0.5072784,-76.95946,22.831715
1032,-0.50099725,-77.65906,2.0006988
1033,-17.475681,-76.03972,9.029017
1034,-20.66651,-47.91418,7.64447
1035,-14.670396,-33.67509,3.7277186
1036,-3.9170506,-17.728422,6.8682985
1037,4.5675993,-13.950754,3.3035908
1038,17.172989,-12.661921,-11.13171
1039,10.79851,-11.198111,-5.902196
1040,0.2868396,-6.0693946,-6.302396
1041,-0.26171497,-5.056034,-7.0543404
1042,3.1423743,1.7135601,-8.335996
1043,2.6344976,4.9402814,-10.983056
1044,1.1733804,8.694022,-12.1663065
1045,-1.5406786,10.562517,-13.400105
1046,-2.554039,11.156535,-14.319847
1047,-4.8418765,10.696515,-18.317955
1048,-5.241777,9.791131,-19.125233
1049,-3.8691943,8.940782,-16.375282
1050,-1.576571,8.59113,-12.74866
1051,-1.428216,7.5346994,-9.2488575
1052,-0.06281159,4.868497,-6.227919
1053,-0.5802595,1.2535399,-3.2264223
1054,-1.5669997,-0.7082755,-0.6559325
1055,-2.0054846,-1.6642082,0.7812566
1056,-3.045166,-2.8498518,1.1404791
1057,-3.016452,-4.004688,1.8041883
1058,7.0615187,-8.098508,64.17819
1059,3.932903,-13.191332,30.86143
1060,-6.0394845,-8.752347,-39.978085
1061,0.8356933,-7.8206415,-7.945667
1062,0.83090764,-9.535697,6.2117677
1063,-1.0088738,-17.673388,-18.068802
1064,-6.087341,-23.70988,-15.771692
1065,-17.367704,-39.297325,-16.401604
1066,-13.904094,-42.651165,-6.937092
1067,-3.004488,-32.44877,3.2653055
1068,2.8381867,-24.035604,-12.235998
1069,6.7091756,-21.59702,-15.721443
1070,14.588142,-19.798214,-23.66711
1071,18.684355,-22.540987,-20.421246
1072,16.801504,-28.620852,-13.637295
1073,13.809578,-30.05804,-13.455141
1074,11.402099,-30.96821,-6.227919
1075,6.2997036,-31.969606,11.206486
1076,7.1213393,-30.07479,28.92115
1077,-0.2760719,-23.839394,40.74528
1078,-13.587644,-21.134905,41.763428
1079,-21.80669,-18.408583,32.097622
1080,-22.692932,-12.719348,19.02294
1081,-18.8363,-5.293223,8.432606
1082,-9.728619,-2.8689942,10.902298
1083,-2.824727,-2.4882364,15.46571
1084,0.8572287,-1.6642082,15.67897
1085,7.1883383,-0.74177504,13.719249
1086,10.539785,-1.6857436,8.957232
1087,11.591431,-3.2069805,1.2723835
1088,10.506286,-3.8751762,-3.0035906
1089,7.516454,-3.3314073,-2.361716
1090,3.3149567,-2.8259234,-2.0982063
1091,2.0835502,-1.8364913,-1.7964116
1092,0.9457632,-0.49262238,-1.3004991
1093,1.0342976,1.0307083,-1.4129617
1094,0.79471624,1.5481563,-1.8203398
1095,-0.034097724,1.6175481,-2.2154546
1096,-0.91555375,1.3806586,-1.2263216
1097,-1.6079768,0.8321041,-0.104985096
1098,-1.2029916,-2.481058,2.2351954
1099,-1.0809577,-4.215256,2.7287152
1100,1.1135598,-6.0430737,0.5919245
1101,2.414059,-15.831214,2.5899315
1102,6.5512495,-62.294147,23.552853
1103,1.1805589,-77.58219,5.6967125
1104,-15.5545435,-73.045395,14.279767
1105,-21.32992,-48.443592,10.059127
1106,-14.663218,-30.573095,1.9764715
1107,-5.8022957,-19.165611,2.5971098
1108,-0.1896312,-15.608382,8.051549
1109,13.234702,-15.22254,-7.3923264
1110,14.159229,-11.823535,-9.366106
1111,2.5794628,-8.100901,-6.7405815
1112,-1.3564314,-4.3447676,-7.4593253
1113,-0.695115,-0.17168503,-7.171888
1114,1.5732809,4.267001,-6.9705915
1115,-0.1680958,8.100004,-10.808081
1116,-0.6759724,9.371789,-10.4871435
1117,-2.8342984,12.617952,-11.268101
1118,-4.64058,12.12204,-12.1663065
1119,-4.0417767,10.380363,-18.121742
1120,-2.9012976,9.235398,-18.380466
1121,-0.65682983,8.612666,-15.857834
1122,0.34217364,7.498508,-11.612967
1123,0.9984053,5.052744,-7.62443
1124,0.44985065,1.0091729,-5.7343993
1125,-0.3574279,-1.7407784,-3.7821553
1126,-1.1766706,-2.861816,-0.62961143
1127,-2.1900308,-3.3457642,1.1165509
1128,-3.4283166,-4.6226344,1.6794624
1129,4.3666024,-11.164612,70.013695
1130,0.04516453,-13.929219,45.078686
1131,-6.4348984,-14.645271,-36.131023
1132,3.4657044,-8.484052,-17.297714
1133,-0.3382853,-11.89532,0.42203408
1134,-4.1350965,-19.170397,21.365812
1135,-2.1828525,-21.381367,-17.573189
1136,-12.466606,-39.865322,-10.401002
1137,-13.345669,-42.811783,-8.793623
1138,-1.0570294,-27.578777,-6.8075805
1139,1.625923,-21.369402,-9.902697
1140,2.998805,-19.01965,-14.173885
1141,4.0791645,-19.48655,-15.817156
1142,9.500104,-20.638992,-17.546867
1143,12.142379,-23.880072,-14.753546
1144,13.57239,-28.232615,-10.429716
1145,16.046867,-29.955149,-8.242676
1146,11.651252,-32.053356,6.125626
1147,7.2122664,-30.630522,22.577778
1148,1.0869397,-26.630022,31.208988
1149,-11.508579,-23.858536,38.83611
1150,-20.814865,-20.622242,36.84319
1151,-25.819155,-16.027426,23.32045
1152,-21.92663,-8.759525,16.526926
1153,-14.881263,-5.2740803,10.2361965
1154,-5.023731,-4.61067,14.883656
1155,-0.36699918,-3.417549,17.954544
1156,5.4780684,-2.4523442,15.199807
1157,12.26202,-1.7694924,11.024332
1158,15.314065,-2.574378,3.9242291
1159,14.509179,-3.4896326,-4.5678983
1160,9.313165,-3.973282,-4.857729
1161,4.8263235,-2.5408785,-2.8456643
1162,1.4536397,-1.4940187,-1.6908283
1163,-0.1274178,-0.22432712,-1.3363914
1164,-0.56350976,0.93738824,-2.2633111
1165,-0.096311115,2.1831515,-3.734299
1166,-0.6831509,2.4320052,-2.9413772
1167,-1.238884,2.3147569,-0.45732823
1168,-1.9097716,1.5960127,0.90807617
1169,-0.48903313,-1.1467602,2.3862424
1170,-1.3540385,-4.5340996,3.938586
1171,0.6128617,-6.268298,1.8975084
1172,2.7711878,-14.892031,0.41485563
1173,10.328918,-61.882282,16.972292
1174,0.61046886,-77.65906,4.4225345
1175,-18.69961,-74.82984,13.309777
1176,-23.711079,-45.978386,17.92583
1177,-16.884056,-31.789845,3.2772696
1178,-8.1020975,-20.689241,2.8725836
1179,4.383352,-15.859927,4.7099724
1180,20.516958,-15.524633,-13.306786
1181,12.1663065,-11.943176,-7.830512
1182,1.4943178,-6.148657,-4.994419
1183,0.77318084,-1.6283158,-8.038987
1184,3.757928,1.8762721,-7.576574
1185,3.5976088,7.414759,-10.784153
1186,1.681257,10.698908,-11.296815
1187,-0.35503507,13.159328,-12.571292
1188,-1.5406786,13.219149,-14.962021
1189,-2.8055844,11.556735,-20.814266
1190,-3.804588,10.869098,-18.36611
1191,-2.7026932,10.555339,-15.699907
1192,-1.6773686,9.22822,-11.689836
1193,-0.85812604,6.3343997,-8.259425
1194,-0.6999006,3.086143,-6.244669
1195,-1.2197413,-0.2940181,-4.2373896
1196,-2.2881367,-2.4451656,-1.9782661
1197,-3.897908,-3.554239,-0.4334
1198,-4.2598224,-4.3040895,1.3992031
1199,2.3087747,-5.451448,48.118767
1200,4.776074,-14.312369,59.157158
1201,-6.003592,-19.043577,-26.965916
1202,5.425426,-9.566804,-18.641584
1203,0.95054877,-13.981861,6.573682
1204,-4.0010986,-20.44009,0.9176475
1205,-6.8802624,-22.969603,-16.28914
1206,-16.457535,-34.717163,-19.491934
1207,-12.624831,-35.92225,-6.3143597
1208,-2.6548367,-27.993034,-1.6621144
1209,1.0079765,-20.667706,-11.10509
1210,2.33031,-18.607487,-17.534605
1211,7.2290163,-18.169,-20.921944
1212,11.831013,-20.801704,-18.31317
1213,16.928621,-25.784458,-13.361821
1214,20.892931,-30.527632,-10.894522
1215,14.657535,-33.713676,-18.071196
1216,8.527422,-35.697025,-12.966407
1217,6.4217377,-37.907993,25.464418
1218,4.074379,-33.99872,45.869213
1219,-7.498508,-22.13361,70.29156
1220,-20.077278,-18.288942,43.83322
1221,-28.540392,-12.87518,21.801905
1222,-17.367704,-6.3568325,8.525927
1223,-6.7295146,-4.962714,12.389736
1224,1.6043876,-2.3060827,14.361423
1225,7.4853473,-1.5107684,12.339487
1226,10.85833,-2.387738,10.157233
1227,12.187842,-2.6365914,8.710473
1228,11.502598,-3.6116667,4.846363
1229,9.890433,-4.3375893,-1.9758734
1230,6.0026946,-4.0645084,-2.5989046
1231,2.9578278,-2.806781,-1.1087742
1232,1.2619148,-1.4246268,-1.3651053
1233,0.3924229,-0.044865426,-2.2441685
1234,0.24616162,1.2439687,-2.8624141
1235,0.10977074,2.1182463,-2.606083
1236,-1.2939188,2.417648,-1.884946
1237,-2.5085754,2.3171496,-0.2536392
1238,-3.3206396,1.9435701,3.612863
1239,-2.1780667,-0.79710907,4.456034
1240,-2.1035903,-3.2093735,4.41057
1241,-0.9945169,-5.0754757,2.0078773
1242,1.0366904,-11.279766,-0.6750751
1243,8.570493,-49.619663,16.277775
1244,3.0107691,-77.512794,3.9314077
1245,-16.177277,-77.65906,4.983053
1246,-22.37678,-61.388763,10.482956
1247,-12.907483,-35.737705,8.72483
1248,-5.6730833,-21.378973,5.5746784
1249,-3.6320057,-15.816856,7.90798
1250,13.04537,-12.072687,-8.393424
1251,14.837295,-11.959926,-11.100305
1252,2.5292134,-7.533204,-6.771688
1253,-1.4760724,-2.8259234,-8.52772
1254,0.49292147,0.8150552,-9.272786
1255,2.440679,4.276572,-8.745767
1256,2.7014968,9.973285,-10.676476
1257,-0.20877378,12.023635,-12.710075
1258,-1.4928222,13.377075,-13.162917
1259,-1.7635103,12.653844,-17.18974
1260,-2.7314072,11.544771,-19.410278
1261,-2.1684954,10.552946,-16.64597
1262,-0.098703936,9.268898,-13.606188
1263,0.8596215,7.6399837,-9.497711
1264,0.36131623,4.5352964,-5.5836515
1265,-0.04127619,1.9268204,-4.2541394
1266,-1.605584,-0.8569296,-1.805983
1267,-2.774478,-2.0712872,0.16091733
1268,-3.6343985,-2.7948167,1.2963116
1269,-4.1685963,-4.045366,2.0988045
1270,5.003691,-13.042678,78.280594
1271,-2.309672,-18.679272,18.301804
1272,5.540282,-9.713065,-49.16742
1273,1.0390832,-10.431809,-3.5760734
1274,-1.5526428,-11.097612,1.6818552
1275,-6.8252273,-18.717855,-0.9556335
1276,-6.7845497,-25.046572,-13.27568
1277,-15.029917,-45.26473,-17.913269
1278,-10.193424,-40.667816,-9.253643
1279,1.1231312,-26.519953,-11.050055
1280,2.0021944,-21.644875,-12.015559
1281,6.5081787,-19.175184,-17.970695
1282,11.895618,-21.103498,-20.835802
1283,16.648363,-25.959435,-18.528822
1284,15.409778,-30.10829,-13.462319
1285,13.287344,-32.729027,-13.8601265
1286,14.928223,-34.690845,-8.309675
1287,9.689436,-36.547375,12.926327
1288,7.3609204,-34.03222,34.53621
1289,-1.3827524,-26.89114,50.236416
1290,-14.46222,-21.201904,45.277588
1291,-14.46222,-21.201904,45.277588
1292,-23.99373,-11.198111,13.642678
1293,-17.14278,-6.287441,5.3422756
1294,-7.701898,-1.8364913,10.854442
1295,-2.4535406,-0.73459655,16.565212
1296,3.6526437,0.13010973,15.144773
1297,9.631709,-1.5753746,11.968301
1298,12.810575,-2.6126633,9.292527
1299,13.457534,-3.3122647,2.4388845
1300,10.438988,-4.174578,-2.9198418
1301,7.133303,-3.0798619,-2.1005993
1302,4.368995,-2.0138593,-1.6022938
1303,1.8487546,-0.8569296,-2.239383
1304,0.55034924,0.20668006,-2.4502504
1305,0.37806597,1.1530414,-2.8671997
1306,-0.42681974,1.9100707,-2.3401806
1307,-1.5335002,2.0727825,-1.6716857
1308,-0.30239296,1.9962122,0.110368945
1309,-1.1670992,-2.0760727,4.0007997
1310,-0.45792642,-4.462016,2.7215366
1311,2.2345972,-6.155835,-1.288535
1312,1.07019,-13.917254,-1.8083757
1313,0.4354937,-50.28816,-2.821736
1314,-0.62811595,-77.50083,9.247063
1315,-18.69243,-75.994255,9.577572
1316,-21.921844,-55.354362,15.130416
1317,-18.426529,-30.539595,10.77518
1318,-12.258131,-20.540588,1.3250256
1319,-2.3865414,-13.2870455,2.242374
1320,13.387843,-10.283155,-0.6583253
1321,19.374386,-13.744673,-10.719546
1322,11.984153,-11.411371,-5.93091
1323,2.8525436,-5.866005,-5.660222
1324,3.6693935,-1.6211374,-6.2662044
1325,7.2122664,1.2296118,-8.656933
1326,3.6335013,4.9881377,-10.872986
1327,1.5517455,9.45823,-10.139885
1328,-1.6438692,11.091929,-10.750653
1329,-5.471787,11.1015005,-10.693225
1330,-4.8418765,10.176675,-21.235703
1331,-2.3575284,9.422338,-21.436998
1332,-0.38853458,9.30479,-17.740686
1333,0.13369897,8.169395,-11.2393875
1334,1.1087742,6.41097,-6.6017976
1335,-0.12023934,2.9614172,-4.496114
1336,-1.4234303,-0.34666017,-4.1703906
1337,-3.3397822,-2.7996025,-2.1125634
1338,-4.182953,-4.153043,-0.24646074
1339,-4.4129634,-4.677669,1.6507485
1340,4.529314,-17.304295,77.537926
1341,-11.18495,-24.545874,-4.79073
1342,2.306382,-12.2330065,-9.988838
1343,-2.6691937,-16.408482,10.811071
1344,-4.1279182,-17.673388,2.1275184
1345,-1.3010973,-15.663417,-18.088243
1346,-10.01845,-26.25405,-16.9693
1347,-16.74258,-37.984863,-20.979372
1348,-4.8729835,-26.515167,-11.390434
1349,1.9184456,-18.37269,-12.264711
1350,1.096511,-17.75953,-15.460326
1351,3.7941194,-19.0364,-10.745868
1352,6.088836,-19.618454,-14.861223
1353,12.18545,-21.644875,-14.45893
1354,20.437996,-27.9045,-11.673086
1355,20.785254,-31.46173,-12.384353
1356,10.422238,-37.30919,-23.058735
1357,4.495815,-44.83581,-3.3005998
1358,4.1174498,-42.41398,36.043087
1359,-2.4942186,-31.653454,75.90183
1360,-13.365111,-22.342085,60.891655
1361,-21.349062,-18.578772,36.047874
1362,-24.70769,-10.793425,17.195122
1363,-14.44547,-6.486344,8.104191
1364,-5.035695,-4.668098,13.520644
1365,0.5913263,-1.3193426,16.289738
1366,4.1844487,-0.31076783,14.601004
1367,12.858431,-0.35862428,7.941479
1368,14.837295,-1.9540387,4.863113
1369,14.260027,-3.10379,-1.3674982
1370,9.936196,-3.609274,-2.2154546
1371,5.226523,-3.0487552,-0.68494546
1372,2.2082763,-2.0138593,-0.43579283
1373,0.2724827,-0.7704889,-1.329213
1374,-0.52283174,0.38404804,-2.4191437
1375,-0.573081,1.4620147,-3.1546376
1376,-0.7477571,2.3027928,-2.8289146
1377,-1.4018949,2.4729822,-0.37328035
1378,-2.568396,2.0823538,2.117947
1379,-2.6548367,-0.37776688,5.2008
1380,-2.475076,-4.124329,5.9243298
1381,-1.1790633,-7.5116687,2.7909286
1382,1.166202,-14.606986,2.4891338
1383,4.7210393,-41.949173,10.82812
1384,2.6249263,-77.65906,4.836792
1385,-10.468898,-77.57023,-0.70169526
1386,-18.874584,-52.352867,10.729716
1387,-13.5685005,-33.038002,6.940083
1388,-13.812868,-23.740988,0.49142596
1389,-5.641977,-16.315163,8.377272
1390,9.888041,-12.633206,-4.855336
1391,16.303198,-13.569697,-13.115061
1392,6.4360948,-10.14168,-5.7873406
1393,-0.98973125,-3.8703907,-6.1441703
1394,-0.014955142,0.10139586,-8.201998
1395,3.1902308,3.6346977,-7.303493
1396,3.8228333,7.0340014,-7.85444
1397,2.2154546,10.028319,-11.119746
1398,0.45224348,11.204392,-12.147164
1399,0.16002001,11.956635,-17.417356
1400,-1.0328021,11.767303,-19.882263
1401,-2.1302104,11.638091,-15.867405
1402,-2.1445673,10.919347,-13.095919
1403,-1.6079768,10.0163555,-10.377073
1404,-0.85812604,6.8518476,-7.8783684
1405,-1.4234303,3.2201412,-4.8625145
1406,-2.1445673,-0.07597212,-3.583252
1407,-2.5085754,-1.556232,-0.7686943
1408,-2.71705,-3.0798619,0.46031925
1409,-3.7061832,-4.339982,1.8448663
1410,5.6264234,-14.115859,78.709206
1411,1.7291135,-19.24966,31.34777
1412,3.5736806,-9.449555,-47.83791
1413,-0.22791636,-11.150254,-5.0422754
1414,-3.778267,-14.044074,7.9295154
1415,-7.373782,-21.074785,-13.881661
1416,-9.441181,-28.733313,-16.377674
1417,-16.40968,-44.5412,-17.805292
1418,-9.340682,-34.16143,-3.825226
1419,-1.0136595,-20.904896,-8.105986
1420,0.2533401,-16.211971,-14.188242
1421,3.525824,-15.457335,-19.163818
1422,8.644969,-15.809678,-22.503002
1423,16.331911,-18.684057,-17.019848
1424,20.222342,-26.459833,-9.64158
1425,22.581964,-30.139397,-13.189239
1426,11.665608,-33.09543,-17.723936
1427,5.9548383,-40.34658,-7.3731837
1428,7.4159555,-41.970707,21.135803
1429,3.7292142,-35.08865,61.694145
1430,-9.640084,-22.349262,59.63632
1431,-17.770298,-18.336798,35.808292
1432,-24.873093,-12.1301155,15.0272255
1433,-11.146666,-6.6299133,10.461421
1434,-2.501397,-5.645566,13.891831
1435,2.2034905,-3.8177485,15.44896
1436,5.2887363,-2.4188447,14.023437
1437,9.222238,-1.7407784,12.18874
1438,11.119447,-2.5983062,9.007482
1439,11.531311,-4.390231,1.3369896
1440,9.492926,-4.5987062,-2.876771
1441,6.6349983,-4.160221,-1.939981
1442,2.5004997,-3.0296125,-0.71365935
1443,0.14327025,-1.5634105,-2.169991
1444,-0.6687939,-0.17647067,-3.106781
1445,-0.5347959,1.0689936,-3.7821553
1446,-0.8030911,2.2142582,-4.896014
1447,-1.7324036,2.4969103,-2.5558336
1448,-2.0557337,2.568695,-0.07148558
1449,-1.3707882,1.6944175,1.0208379
1450,-2.6377878,-2.9168508,3.3780673
1451,-1.8882362,-4.3591247,3.2533414
1452,-0.9299107,-6.828817,1.7129619
1453,-0.23988047,-21.367008,17.20948
1454,-4.0585265,-77.65906,29.002506
1455,-13.015161,-77.64949,-2.5028925
1456,-21.272491,-72.42236,6.6478596
1457,-15.187843,-46.903214,6.38435
1458,-1.3034902,-26.349764,9.898509
1459,2.6225336,-17.543877,10.482956
1460,11.744572,-15.804893,0.07447661
1461,18.298813,-12.827324,-11.728121
1462,6.4555364,-9.245867,-4.0480576
1463,1.4177474,-5.1903315,-5.425426
1464,2.251347,0.06550352,-7.198209
1465,4.886443,3.7160535,-9.629616
1466,2.021337,7.388438,-11.787942
1467,-0.5491528,11.963814,-11.2298155
1468,-5.388038,12.383156,-12.365211
1469,-7.0337024,12.342479,-12.961621
1470,-5.083851,10.859527,-19.278673
1471,-3.2847474,8.983852,-19.84637
1472,-0.7070791,7.8029947,-16.990835
1473,0.21505493,6.24108,-12.291033
1474,0.59611195,4.8299127,-9.193523
1475,0.20309082,2.1038892,-5.7631135
1476,-0.23030917,-1.1515459,-5.3799624
1477,-2.1278176,-3.4151561,-3.0610185
1478,-3.1600213,-4.4548373,-1.1303096
1479,-3.4908292,-5.7149577,0.10079765
1480,-1.7515461,-6.7354965,14.263018
1481,7.6627154,-13.500305,52.675
1482,-7.8696947,-15.114862,-28.197021
1483,-0.81984085,-11.227124,-14.705689
1484,1.0486546,-12.824931,12.224631
1485,-7.048059,-17.536697,17.032412
1486,-0.73340017,-16.906788,-15.48904
1487,-14.313566,-31.306196,-11.392827
1488,-14.4236355,-41.551662,-8.192427
1489,-1.8017955,-32.187653,-3.4229329
1490,3.5641093,-25.544878,-11.35185
1491,5.7224355,-21.608984,-15.726229
1492,11.224731,-18.10918,-20.418854
1493,16.21227,-18.231514,-19.297815
1494,19.860727,-23.549562,-14.070993
1495,17.333307,-27.823143,-13.479069
1496,10.810473,-32.44877,-16.159628
1497,5.116453,-37.987255,3.5288153
1498,5.7631135,-37.119858,29.132017
1499,3.9592242,-30.489346,51.486664
1500,-9.477073,-24.004498,41.49992
1501,-16.910378,-21.632912,31.199417
1502,-21.461824,-12.836895,19.027725
1503,-17.720049,-6.7259254,14.694324
1504,-9.189635,-4.3926244,13.245171
1505,0.05712864,-4.176971,13.04866
1506,5.157131,-2.972185,13.724034
1507,8.618649,-1.6905292,14.349459
1508,11.359028,-2.3829522,11.949158
1509,12.523136,-3.0966115,5.229813
1510,11.617752,-4.083651,-3.636193
1511,7.116554,-3.798606,-3.5162528
1512,3.894618,-3.3672996,-1.6932211
1513,1.451247,-2.4044876,-0.9170493
1514,0.33738798,-0.93349993,-2.1269202
1515,0.27726832,0.24975087,-2.9030921
1516,0.16719848,1.0067801,-3.5521452
1517,-0.15373886,2.079961,-3.5928233
1518,-1.4258232,2.1421745,-0.95802635
1519,-1.6271194,0.02213361,2.3336003
1520,-1.1359925,-3.5877385,3.641577
1521,-0.42203408,-6.0622163,2.6090739
1522,1.695614,-10.707283,0.47946185
1523,4.8625145,-25.144978,10.372886
1524,6.716354,-72.32665,16.677675
1525,-13.681263,-77.65906,-3.4085758
1526,-22.475185,-61.66663,16.011871
1527,-22.78655,-43.860737,10.763215
1528,-14.986846,-29.950363,5.6943197
1529,-2.1158533,-19.421944,4.808078
1530,12.434602,-17.790636,1.0615159
1531,21.55664,-16.154543,-8.288139
1532,14.372489,-13.919647,-6.97777
1533,1.9615164,-7.5379896,-4.436293
1534,2.1122642,-1.7718852,-5.0973105
1535,5.446962,3.6490545,-9.124132
1536,0.8979067,8.87139,-12.585649
1537,-1.1312069,12.605988,-11.076376
1538,-4.765007,13.633406,-14.760725
1539,-7.5056863,14.047962,-13.721044
1540,-5.6036916,13.295719,-21.398714
1541,-3.4908292,11.89203,-23.283958
1542,-0.5491528,9.127721,-17.304893
1543,0.8258229,6.576374,-12.633506
1544,0.6056832,3.3999019,-8.458329
1545,-0.27128628,-0.567099,-6.0580287
1546,-1.5454643,-2.725425,-4.223033
1547,-3.3613176,-4.3854456,-1.8442681
1548,-5.325825,-5.6168523,-0.3469593
1549,-6.9355965,-7.468598,-0.61046886
1550,4.7712884,-13.450056,78.709206
1551,-1.1718849,-19.644775,56.47181
1552,-0.7070791,-24.009283,-9.049954
1553,9.737292,-10.446166,-31.893335
1554,1.3674982,-13.409378,-0.9508479
1555,1.6429719,-15.668202,8.252846
1556,-1.2532408,-16.144972,-14.238491
1557,-10.720444,-28.340292,-12.786945
1558,-13.546966,-33.962826,-12.494721
1559,-1.9456639,-22.65345,-11.612967
1560,3.417848,-16.997715,-22.517359
1561,2.5148566,-16.878073,-11.950953
1562,3.8587255,-17.203796,-11.917154
1563,3.3939197,-19.215862,-11.780764
1564,8.625827,-20.468803,-11.232208
1565,19.264017,-24.62753,-13.491034
1566,23.26691,-28.970503,-12.987942
1567,13.656137,-37.150963,-24.611078
1568,9.231809,-44.668316,3.286841
1569,7.353742,-42.862034,28.643284
1570,-2.4559333,-31.08815,71.54899
1571,-15.190236,-21.707388,52.018467
1572,-25.225136,-17.601305,28.458736
1573,-20.582762,-9.679565,17.037197
1574,-12.15524,-6.663413,7.998907
1575,-1.7682959,-4.7685966,9.532108
1576,2.1915264,-2.588735,11.740684
1577,5.6264234,-0.959821,13.393526
1578,9.2437725,-0.76570326,12.133406
1579,11.81187,-1.4437693,6.8467627
1580,13.421641,-2.9168508,-1.017847
1581,9.837791,-3.5614173,-3.5593238
1582,6.2470617,-2.9650064,-1.5209379
1583,2.8142586,-1.992324,-0.8285148
1584,1.1949158,-0.98614204,-1.0561321
1585,0.39720857,0.02213361,-2.021636
1586,-0.055633128,1.0570294,-3.0972097
1587,-0.10109676,1.7733806,-2.8695927
1588,-0.61854464,1.7374884,-1.8155541
1589,-1.864308,1.2990036,0.84107715
1590,-2.652444,-2.1385853,4.182953
1591,-1.1790633,-5.226224,3.8545382
1592,0.7516454,-8.503195,2.3838496
1593,3.892225,-15.924534,5.469095
1594,12.285948,-47.947678,18.20609
1595,1.803291,-77.65906,-0.6897311
1596,-18.932013,-77.50323,16.495821
1597,-27.79772,-58.133327,9.306884
1598,-12.490534,-33.996326,5.5076795
1599,-6.0634127,-21.829422,9.352347
1600,6.853044,-17.335402,4.781757
1601,22.66332,-13.569697,-12.458829
1602,12.944871,-11.643774,-10.147063
1603,3.3005998,-7.7775707,-6.378966
1604,-0.04127619,-2.0234306,-8.539685
1605,1.4153546,2.2645075,-7.7108707
1606,0.23898315,7.5032935,-8.9108715
1607,-1.0256236,9.850952,-10.8969145
1608,-3.7878382,12.023635,-12.219248
1609,-6.9185476,12.366406,-14.818152
1610,-5.948557,10.109675,-26.172993
1611,-3.9577286,10.3181505,-21.257238
1612,-2.3048863,10.227223,-17.149061
1613,-0.78394854,8.425727,-12.300604
1614,-0.90358967,6.7872415,-6.9801626
1615,-1.0232308,2.0608184,-5.3440704
1616,-1.7994026,-0.14297116,-4.429115
1617,-3.1695926,-2.5097718,-0.63200426
1618,-4.147061,-3.551846,0.9562318
1619,-4.721936,-4.9052863,1.9405792
1620,1.9016958,-12.803097,72.11459
1621,-2.3694925,-17.44577,23.991337
1622,-1.1670992,-10.956436,-41.688652
1623,2.7041886,-7.2529445,-13.333107
1624,0.023330022,-4.87418,-2.416751
1625,1.2882359,-4.2128634,-2.4335005
1626,0.9242278,-5.573482,-2.618047
1627,-2.0150557,-15.783358,-8.285747
1628,-15.5952215,-44.924347,-23.3031
1629,-20.261524,-56.964134,-27.238997
1630,2.0668006,-32.343185,-3.0275187
1631,4.543671,-22.931316,-3.7247276
1632,7.1428747,-19.148863,-11.035698
1633,12.329019,-20.229221,-20.459532
1634,13.989339,-26.644379,-25.274488
1635,13.071691,-33.73521,-11.052447
1636,13.18206,-35.53162,2.6186452
1637,16.377674,-32.67878,22.489243
1638,13.447963,-28.776384,29.872297
1639,6.721439,-24.723242,24.295525
1640,-5.270491,-24.282364,33.177982
1641,-11.836696,-20.131117,35.86811
1642,-19.37289,-11.900105,22.08695
1643,-16.907984,-7.2912297,14.567205
1644,-10.713265,-6.285048,10.18834
1645,-2.611467,-5.6527443,12.203096
1646,2.498107,-3.4561331,12.940684
1647,5.343771,-2.8809586,12.976875
1648,7.684251,-3.0726833,15.079867
1649,10.386346,-3.1372895,12.24856
1650,10.738688,-4.4859443,0.232702
1651,9.382557,-5.07069,-5.5046883
1652,5.5019965,-4.4285164,-3.9020956
1653,3.094518,-2.7469604,-1.9280169
1654,1.5397813,-1.0268201,-2.0551355
1655,0.663111,0.3912265,-3.4971104
1656,0.45942193,1.6223338,-5.135596
1657,-0.08673982,2.0703897,-3.949952
1658,-0.34546378,2.1855445,-1.8562322
1659,0.14087744,2.2381866,-0.32542387
1660,0.8258229,-0.32033914,2.4149563
1661,-0.005383851,-4.543671,2.3838496
1662,2.1723838,-5.580661,-0.53389853
1663,4.936692,-9.70828,-4.167998
1664,8.525029,-28.093832,1.0160524
1665,8.350353,-77.65906,10.087841
1666,-11.153844,-77.65906,15.393926
1667,-31.305,-67.88528,16.926826
1668,-28.200312,-45.782173,11.539387
1669,-7.8720875,-23.77688,9.12473
1670,-2.8845477,-17.970398,8.978767
1671,10.321739,-17.28276,-1.8323039
1672,20.938694,-12.539587,-15.683158
1673,4.2251267,-8.560922,-5.8567324
1674,0.55034924,-3.6571302,-5.6913285
1675,1.5349957,0.4103691,-7.07109
1676,3.365206,5.3330035,-9.696614
1677,3.1399815,9.115458,-12.087343
1678,-0.8461619,12.421441,-12.597613
1679,-5.6946187,13.262219,-13.325929
1680,-7.9630146,12.682558,-11.689836
1681,-6.5282183,10.979168,-19.410278
1682,-4.036991,7.67109,-22.72344
1683,-1.6773686,6.6649084,-19.901405
1684,-0.11784652,5.7523456,-13.730615
1685,0.46899325,3.9747775,-8.1586275
1686,-0.8341978,0.12053844,-4.6396832
1687,-2.053341,-2.1314068,-1.7362919
1688,-3.6056845,-3.6786656,-0.96520483
1689,-4.549653,-4.2921257,0.24227329
1690,-4.930411,-6.30419,1.9070797
1691,6.599106,-11.720345,78.709206
1692,2.1915264,-15.847963,26.82743
1693,6.3978095,-12.891931,-32.866016
1694,3.5114672,-9.202796,-15.5799675
1695,0.84047896,-8.076973,1.4183456
1696,0.7516454,-13.888242,17.401205
1697,-6.5401826,-20.701206,-13.419249
1698,-17.04916,-37.54877,-14.602798
1699,-14.821443,-45.844387,-4.508078
1700,1.137488,-30.170502,-1.4727824
1701,2.1361923,-22.356441,-13.898411
1702,2.0285153,-20.509481,-16.468601
1703,2.3542383,-20.059332,-16.684256
1704,6.349953,-20.131117,-19.228424
1705,10.977971,-24.143581,-14.930914
1706,11.945868,-28.50809,-10.650154
1707,12.714861,-32.328827,-9.399606
1708,12.307484,-32.408092,17.154444
1709,11.392528,-29.653055,26.295626
1710,4.265805,-26.716164,32.358738
1711,-8.118847,-23.575884,36.076588
1712,-16.874485,-18.195621,34.073795
1713,-23.945873,-8.8651085,14.323137
1714,-19.856838,-5.805885,11.582458
1715,-9.879665,-4.514658,15.300306
1716,-5.2609196,-4.979464,17.569
1717,1.1398809,-4.1482573,16.047764
1718,8.728718,-4.488337,13.652249
1719,13.902898,-4.371089,11.676077
1720,13.392629,-4.785346,0.5560322
1721,11.919547,-5.3147583,-4.306782
1722,5.31745,-4.1339,-3.3918262
1723,2.1867409,-2.7493532,-1.9184456
1724,1.1901301,-2.097608,-1.7267207
1725,0.18873389,-0.7609176,-1.817947
1726,0.1265205,0.6332007,-3.2216365
1727,0.21026929,1.8523438,-4.5415773
1728,-0.47946185,2.4562325,-3.365505
1729,-0.65682983,2.3219352,0.6517451
1730,-0.30957142,0.9493524,2.6569304
1731,-1.4808581,-4.1291146,3.4761732
1732,0.200698,-5.688637,1.087837
1733,2.169991,-6.7522464,-0.9843474
1734,3.8228333,-17.086248,-2.00698
1735,10.316954,-68.749985,28.746176
1736,-6.667301,-77.65906,5.648856
1737,-24.856043,-66.98707,19.35584
1738,-26.81098,-46.689953,10.037592
1739,-22.278675,-36.734314,4.999803
1740,-7.0600233,-20.008783,4.5708895
1741,-0.84137625,-16.815561,7.433603
1742,22.79044,-12.386446,-14.65544
1743,17.800507,-11.667703,-9.430713
1744,3.1375887,-7.4180493,-5.554938
1745,2.0524435,-1.9013968,-8.038987
1746,5.93091,4.904389,-7.3489566
1747,3.9568315,7.7668033,-11.39522
1748,1.9926231,10.540982,-12.377174
1749,-1.9791634,13.906487,-12.374782
1750,-4.2646084,14.071891,-19.199709
1751,-5.529215,11.6955185,-24.105595
1752,-3.8500516,11.180464,-17.733507
1753,-2.6018956,9.764811,-13.773685
1754,-1.5191432,7.5873413,-9.464211
1755,-1.1718849,5.1176496,-7.658229
1756,-1.006481,1.7446668,-6.5057855
1757,-2.324029,-1.9277177,-4.0145583
1758,-3.399603,-3.649952,-0.83090764
1759,-3.845266,-3.9828532,-0.2847459
1760,-4.616652,-5.235795,0.54646087
1761,2.1891336,-8.932108,65.270515
1762,-4.1231327,-14.78914,45.315872
1763,2.4188447,-21.604197,15.812968
1764,7.995617,-8.254042,-22.412075
1765,1.2116655,-10.065109,-8.56122
1766,-0.39810586,-10.874781,-0.04755735
1767,-6.7319074,-22.809282,-8.965906
1768,-13.144672,-37.256546,-12.623934
1769,-13.477573,-36.62873,-10.302597
1770,-2.6377878,-23.851357,-10.353146
1771,2.819044,-18.30569,-15.309279
1772,3.3819556,-16.267006,-14.19542
1773,3.0203404,-18.480667,-15.282958
1774,5.645566,-20.037497,-12.331711
1775,16.331911,-20.42334,-16.724934
1776,23.012972,-24.359234,-16.190735
1777,13.284951,-30.585058,-10.772188
1778,7.4159555,-36.530624,-13.309178
1779,6.1534424,-38.44937,-7.792227
1780,3.6287155,-40.63641,24.89672
1781,1.9232312,-33.486057,60.982582
1782,-13.424932,-21.937399,46.942394
1783,-20.515463,-18.200407,31.331022
1784,-24.314667,-11.09522,16.040586
1785,-15.247963,-6.078966,12.964612
1786,-3.7133617,-5.1161537,14.41885
1787,7.042376,-3.051148,13.66182
1788,8.985049,-2.6246274,12.935899
1789,11.390135,-2.2797618,11.285449
1790,12.827324,-2.483451,6.436992
1791,12.698112,-3.2907293,0.6999006
1792,8.381459,-4.1339,-4.0073795
1793,3.6981075,-3.2213376,-1.9304097
1794,1.0749756,-2.1457636,0.012263216
1795,0.14566308,-1.0654043,-0.8141579
1796,0.0041874396,0.067896344,-1.9136599
1797,-0.46989053,1.6728821,-3.295814
1798,-1.1814562,1.8308084,-3.7534413
1799,-1.2795619,2.1927228,-1.8107685
1800,-1.0375878,2.5256243,1.0615159
1801,-0.5587241,-1.4988043,3.7468612
1802,-0.721436,-4.7231326,3.7803607
1803,0.63918275,-6.6203423,1.1763715
1804,5.8420763,-25.976183,-0.2536392
1805,7.806584,-71.346794,28.53082
1806,-2.408077,-77.51997,8.765508
1807,-21.464218,-75.086174,13.240385
1808,-25.277779,-44.584267,8.200203
1809,-14.306388,-27.705597,1.2484552
1810,-5.5794644,-19.48655,4.21406
1811,5.662615,-17.268402,9.69482
1812,21.71965,-15.366408,-12.226426
1813,18.04966,-13.524234,-10.815259
1814,2.7472596,-7.7030945,-4.4072804
1815,-0.7118647,-4.5098724,-6.8724856
1816,2.929114,-0.67477596,-8.031808
1817,3.4537404,5.838487,-11.960524
1818,0.7636095,10.028319,-12.628719
1819,-0.6999006,11.913565,-13.172488
1820,-3.452544,13.077673,-13.668401
1821,-5.2441697,11.745769,-15.112769
1822,-4.374678,10.876276,-20.715862
1823,-2.4559333,8.39462,-18.856937
1824,-1.6199409,7.754839,-16.291533
1825,-0.73340017,6.818348,-10.434502
1826,-0.587438,4.9642096,-6.2805614
1827,-0.89401835,0.13489537,-4.069593
1828,-2.7792635,-1.6139588,-2.3832514
1829,-3.9891346,-3.0846474,-0.62721866
1830,-4.508676,-3.7507496,-0.22013968
1831,-4.295715,-5.185546,1.483251
1832,7.1859455,-10.101002,78.709206
1833,3.0705895,-15.527026,49.50331
1834,8.244769,-10.810175,-29.97459
1835,6.690033,-15.102899,5.9099727
1836,4.5675993,-15.984354,10.284053
1837,-0.7716853,-17.618053,-18.310776
1838,-7.728219,-22.79732,-9.632009
1839,-16.620546,-40.063927,-9.217452
1840,-2.865405,-31.001709,-4.5894337
1841,0.49292147,-28.3379,-6.381359
1842,6.302097,-18.42294,-16.574184
1843,7.3345995,-17.598911,-18.737297
1844,12.774682,-17.920147,-18.004196
1845,17.076977,-22.53381,-13.378571
1846,21.154047,-27.621847,-14.133207
1847,19.127626,-30.062826,-14.650655
1848,6.68764,-35.02614,-14.590535
1849,5.5450673,-40.868813,5.2008
1850,3.6000016,-38.023148,40.457844
1851,-7.472187,-25.058537,61.78029
1852,-18.043379,-21.007786,39.173798
1853,-24.422644,-16.50898,24.724138
1854,-22.757837,-10.95165,14.296517
1855,-14.8023,-6.2347984,9.323633
1856,-4.79402,-4.215256,14.782858
1857,5.1738806,-1.9851454,14.047664
1858,9.195916,-1.6857436,12.21506
1859,12.293126,-1.9133608,10.068699
1860,13.325629,-2.7589245,3.2509487
1861,11.9769745,-3.242873,-3.2383864
1862,7.50449,-3.3242288,-2.8241289
1863,3.3460634,-3.0822546,-1.396212
1864,1.9375881,-2.5695925,-1.0752747
1865,0.13609178,-1.1156535,-1.4201403
1866,0.17916259,-0.46869412,-1.8634106
1867,0.3397808,0.8321041,-3.5688949
1868,0.2868396,1.5577276,-3.6457644
1869,-0.85812604,2.1062822,-1.1398809
1870,-0.6041877,-1.7599211,3.3876386
1871,-0.3789633,-4.6704907,3.3059835
1872,1.0055838,-8.060223,1.5981064
1873,2.1337996,-10.453345,0.2638087
1874,3.9424744,-21.841387,0.48424748
1875,-1.0423734,-77.65906,16.057335
1876,-10.550254,-77.60403,2.78375
1877,-30.387352,-69.62695,11.402996
1878,-28.432714,-48.752563,8.779864
1879,-5.476573,-25.892136,3.6463625
1880,-2.6138597,-20.485554,5.7349977
1881,8.621041,-18.046967,9.055338
1882,25.212275,-15.304194,-12.609577
1883,8.625827,-9.056535,-4.778766
1884,1.4608182,-6.1268225,-2.958127
1885,2.766402,-2.7828526,-5.358427
1886,6.8602223,0.85124665,-10.192527
1887,2.7879374,7.8293157,-10.9017
1888,0.8042875,11.412867,-11.994023
1889,-3.792624,12.380763,-14.243277
1890,-6.3795643,12.881461,-14.7559395
1891,-6.200103,12.450155,-20.162521
1892,-4.072883,10.837991,-25.569405
1893,-1.7611175,9.221041,-20.831017
1894,0.7325028,6.166603,-13.821841
1895,-0.33349967,4.307679,-7.0399833
1896,-0.8341978,2.9446673,-5.185845
1897,-1.4760724,0.072681986,-4.6061835
1898,-2.324029,-2.1218355,-2.8719854
1899,-3.505186,-3.431906,-0.36610186
1900,-3.2105699,-4.680062,1.5335002
1901,13.469498,-6.8048887,78.709206
1902,-4.92084,-19.592133,-10.341181
1903,8.280662,-8.053044,-26.965916
1904,-1.8089739,-10.944173,-2.5292134
1905,-0.35264224,-10.977971,8.765508
1906,-1.5646069,-14.353047,1.250848
1907,-8.583653,-18.471096,-10.242777
1908,-16.47907,-30.984959,-15.323636
1909,-14.627325,-36.29583,-11.347064
1910,-0.41724846,-27.868607,-5.317749
1911,4.1222353,-22.641485,-12.4274235
1912,3.1639097,-19.735703,-16.734505
1913,6.4360948,-20.080866,-18.164814
1914,10.762617,-23.949463,-16.660326
1915,14.221742,-27.11397,-15.230316
1916,19.002901,-30.905996,-14.078172
1917,11.742179,-37.213478,-20.519651
1918,7.832905,-41.21876,-2.9078777
1919,8.235198,-38.26273,39.0733
1920,4.3040895,-34.32205,59.708103
1921,-11.968301,-25.381866,57.38198
1922,-23.682364,-17.951254,22.259233
1923,-23.05724,-11.7685,13.659428
1924,-15.446568,-6.7761745,9.117552
1925,-3.2201412,-5.5710893,14.744574
1926,1.6453646,-4.0334015,13.824832
1927,5.7870417,-2.7613173,12.720544
1928,10.146765,-1.6809579,11.735898
1929,12.460923,-2.4236302,6.1160545
1930,12.885051,-3.7531424,-1.1183455
1931,12.154343,-3.8129628,-2.1675982
1932,5.236094,-2.7828526,-1.1422737
1933,2.23699,-1.8607187,0.08883354
1934,0.47856453,-0.6723832,-1.1303096
1935,-0.1680958,0.5925227,-2.3832514
1936,-0.15134603,1.6295122,-3.2312078
1937,-0.8461619,2.7628129,-2.7352953
1938,-1.2867404,2.935096,-1.532902
1939,-1.9624137,2.5950162,0.46031925
1940,-2.6258237,-2.169692,4.0773697
1941,-2.4798615,-3.513561,4.343272
1942,-0.6233303,-6.443273,3.1432717
1943,0.30867413,-13.160226,2.6042883
1944,5.399105,-53.691948,24.41038
1945,-5.8214383,-77.55826,-2.6539395
1946,-22.163519,-73.85268,8.439785
1947,-19.480568,-49.013683,10.698609
1948,-14.601004,-35.476585,6.5255265
1949,-5.110172,-22.945673,8.710473
1950,11.699108,-17.603697,4.1036906
1951,23.324636,-14.853745,-13.903197
1952,9.370592,-11.282159,-5.2316074
1953,4.651647,-8.601599,-3.446861
1954,1.9782661,-4.0764723,-7.2580295
1955,6.1677995,-0.4423731,-8.542078
1956,6.893722,3.8359938,-11.538789
1957,1.7267207,10.483554,-12.279069
1958,-2.4487548,12.936497,-13.7425785
1959,-4.44407,12.931711,-14.02523
1960,-6.0921264,12.55544,-15.893726
1961,-4.393821,11.901601,-20.965015
1962,-2.1708884,9.110672,-18.96252
1963,-0.3574279,7.4362946,-17.19931
1964,0.12891331,5.773881,-13.560724
1965,0.28923243,2.9207392,-7.753942
1966,0.200698,1.768595,-6.2494545
1967,-1.6558332,-2.1816561,-3.7271204
1968,-2.5372894,-3.4247274,-3.147459
1969,-4.072883,-4.584349,-0.5841478
1970,-4.3244286,-5.3342,1.0782657
1971,6.8817577,-14.949458,77.54749
1972,-0.66400826,-16.612171,39.4062
1973,-2.0557337,-10.954043,-41.185562
1974,-1.2532408,-13.270295,3.5527434
1975,-3.7686956,-16.6696,33.817463
1976,5.142774,-14.863317,-28.762327
1977,-16.196419,-37.21587,-17.029419
1978,-14.337494,-40.39713,-11.134103
1979,-0.78634137,-25.345974,-8.031808
1980,3.4226336,-21.618555,-15.000306
1981,5.0132627,-19.433907,-17.388641
1982,7.861619,-19.208683,-16.818552
1983,10.549356,-21.944576,-16.511972
1984,18.624535,-25.642982,-15.75255
1985,23.616861,-29.265118,-12.832409
1986,23.44667,-30.290443,-14.926128
1987,8.836395,-36.07778,-10.7889385
1988,6.0170517,-39.570408,14.921941
1989,9.485747,-33.89553,38.47928
1990,-4.6836514,-19.34298,58.11269
1991,-10.310673,-16.578672,40.148872
1992,-24.678974,-11.334801,13.182658
1993,-17.370398,-6.7498536,3.095415
1994,-12.337394,-4.2391844,5.7616177
1995,0.0738784,-3.9951165,15.690934
1996,4.9342995,-5.5663037,15.870397
1997,6.201598,-6.2060847,15.427424
1998,10.657034,-4.112365,16.660925
1999,11.167303,-3.987639,5.1218367
2000,10.41506,-4.625027,0.15613168
2001,10.446166,-4.855037,-3.7606199
2002,5.195416,-3.3984063,-2.838486
2003,2.821437,-2.4164517,-2.2971098
2004,0.5985048,-0.7369894,-2.4909284
2005,-0.3382853,0.29282168,-2.210669
2006,-0.73100734,1.3734802,-2.8743782
2007,-0.7573284,1.7973089,-2.8289146
2008,-1.6558332,2.2501507,-1.4321043
2009,-2.7290142,2.0057836,0.1369891
2010,-2.012663,1.2200404,0.50099725
2011,-1.8475581,-4.8119664,2.9850461
2012,0.200698,-6.1701922,1.5215361
2013,2.0404794,-10.192228,-0.5721837
2014,5.0850472,-23.57349,1.3441681
2015,10.894222,-77.65906,13.872688
2016,-2.594717,-77.65906,3.3179476
2017,-28.538,-73.874214,18.011972
2018,-27.853054,-47.40391,7.3375907
2019,-8.741579,-26.574987,6.6335025
2020,2.82383,-19.414764,4.1518464
2021,18.142979,-13.241581,-11.296815
2022,14.391632,-11.274981,-10.578071
2023,1.410569,-6.579664,-4.6372905
2024,0.18155542,-2.5528426,-7.181459
2025,2.9916265,0.73130643,-7.8257265
2026,3.7411783,4.415655,-11.747264
2027,3.3101711,8.346764,-11.79512
2028,0.11934203,12.78545,-11.220244
2029,-1.21017,13.83231,-12.302997
2030,-3.7806597,13.604692,-18.852152
2031,-3.6894333,12.830914,-22.80719
2032,-3.4283166,12.42862,-21.075384
2033,-1.2987045,10.727622,-15.798014
2034,-0.6233303,7.8484583,-9.8835535
2035,0.5096712,5.690132,-7.682157
2036,-0.85094756,1.6848463,-4.709374
2037,-2.1158533,-1.8942182,-2.7616165
2038,-3.1169505,-3.551846,-1.1566306
2039,-3.179164,-4.41416,0.22073789
2040,-3.572185,-6.067002,1.5478572
2041,-2.1083758,-7.219445,27.148367
2042,3.674179,-20.6366,28.111479
2043,2.9673991,-13.049856,-43.168915
2044,0.78753775,-12.350554,-15.671194
2045,-4.403392,-11.243874,-3.7654054
2046,-6.774978,-16.854145,18.337994
2047,-5.3183475,-32.90161,-17.26631
2048,-16.440784,-47.569016,-15.539289
2049,-17.97638,-42.291943,-15.608682
2050,-3.0523443,-23.611776,-7.62443
2051,3.2742786,-16.240686,-9.770792
2052,3.1304102,-15.560526,-12.338889
2053,4.6707897,-16.556837,-13.817056
2054,7.303493,-18.550058,-13.809876
2055,12.885051,-24.076582,-12.092129
2056,18.971794,-29.035109,-15.033806
2057,17.091333,-34.221252,-11.023734
2058,12.453745,-35.31866,8.226524
2059,9.629316,-35.08865,22.925335
2060,6.445666,-26.95096,39.92604
2061,-4.7362933,-23.341087,43.39713
2062,-15.710077,-19.68306,36.730427
2063,-26.226532,-12.249757,16.426128
2064,-23.907589,-10.264012,15.032011
2065,-5.7927246,-5.063512,14.504992
2066,-1.1814562,-4.4572306,14.926726
2067,6.68764,-3.2213376,11.515459
2068,8.874979,-2.2558336,10.736895
2069,12.223735,-2.5959134,5.8501525
2070,12.389138,-3.4872398,-1.20688
2071,10.913365,-3.3481572,-3.0466614
2072,8.345567,-2.6485555,-2.0336
2073,4.0381875,-1.9540387,0.4435695
2074,2.0141585,-1.0124631,0.48185465
2075,1.5014962,0.3481557,-1.137488
2076,1.3576277,1.1506486,-2.3353949
2077,1.0606186,1.6657037,-2.8576283
2078,0.25094727,2.2740788,-0.35413775
2079,-0.1680958,2.4993033,2.2809582
2080,-0.52522457,-2.8426733,4.1638107
2081,0.13609178,-4.7709894,3.327519
2082,2.510071,-6.594021,0.45074797
2083,2.8429725,-15.639489,5.174479
2084,7.4829545,-54.24529,10.897512
2085,-1.3540385,-77.65906,1.8281165
2086,-18.433708,-76.46833,12.344273
2087,-26.703003,-61.043896,9.416953
2088,-26.128128,-48.038605,4.523033
2089,-4.7916274,-22.488346,10.183554
2090,-1.957628,-19.527527,12.693924
2091,8.110771,-20.583958,3.844967
2092,22.409382,-13.490734,-14.3054905
2093,7.006484,-9.41127,-5.4349976
2094,2.3159533,-4.8622155,-4.031308
2095,7.993224,-0.6628119,-8.5349
2096,5.2169514,5.139185,-13.373785
2097,3.7674992,7.879565,-12.894622
2098,-2.1541386,13.547264,-15.249458
2099,-7.024131,14.606089,-14.344074
2100,-8.080562,14.493626,-16.85923
2101,-6.5521464,11.992528,-27.258139
2102,-3.3254254,10.890634,-22.011875
2103,-2.4798615,8.65813,-16.610077
2104,-1.2556337,6.4902325,-12.858729
2105,-1.5816557,1.933999,-7.2436724
2106,-1.998306,0.12053844,-5.0709896
2107,-3.1145577,-2.1457636,-1.7338991
2108,-3.9457645,-3.8009987,-0.009272188
2109,-3.5386856,-5.3796635,1.4063815
2110,7.7416787,-10.680962,78.709206
2111,5.9066825,-17.419449,51.42445
2112,3.3699915,-20.195723,-21.384357
2113,4.634897,-9.353843,-22.28017
2114,-3.545864,-6.984649,1.3537394
2115,-1.102493,-8.958429,8.260024
2116,-6.1208405,-13.354343,5.1385865
2117,-17.17628,-31.34448,-16.737196
2118,-22.46322,-46.452763,-22.038197
2119,-2.077269,-36.660137,-2.8743782
2120,5.877969,-26.922245,-5.7343993
2121,-0.4866403,-20.969501,-15.855441
2122,-0.84855473,-20.694027,-17.367107
2123,1.0582259,-22.531416,-17.958733
2124,10.776974,-24.58416,-18.076279
2125,16.06601,-27.942785,-15.704693
2126,14.279169,-32.005497,-18.274883
2127,15.450456,-37.867317,3.9050865
2128,14.95215,-37.77878,25.289743
2129,12.094522,-32.510983,50.06144
2130,-7.5942206,-24.874289,53.712288
2131,-20.060528,-18.394226,36.814472
2132,-20.73351,-10.611271,20.242382
2133,-11.32164,-6.1100726,8.727222
2134,-0.7262217,-8.017152,13.130016
2135,7.7010007,-6.79771,8.962018
2136,9.16481,-5.0512486,10.389636
2137,8.601898,-2.8522446,14.267803
2138,10.28824,-1.8388842,12.7444725
2139,10.127622,-2.8546374,2.661716
2140,9.926326,-4.0908294,-3.228815
2141,7.65793,-4.3878384,-3.0873394
2142,3.7292142,-3.3433714,-1.1303096
2143,1.6235301,-1.8990039,-0.35174492
2144,0.79950184,-0.2940181,-0.85483587
2145,-0.37657046,0.8679964,-2.778366
2146,-1.0160524,2.1326032,-2.716153
2147,-1.7060826,2.7149563,-1.5400804
2148,-1.3133606,2.7915268,0.26859435
2149,-3.6583266,0.15403795,1.3968102
2150,-2.2331018,-3.063112,2.1299112
2151,-0.24975087,-5.561518,1.3106686
2152,2.5818555,-9.866206,-2.0599213
2153,3.269493,-18.52613,-0.15553348
2154,9.742078,-61.68338,27.000013
2155,-0.64008003,-77.43144,8.2456665
2156,-21.91676,-71.25108,12.140584
2157,-29.285458,-57.83153,14.77568
2158,-19.535902,-38.41348,9.292527
2159,-3.2153554,-22.878675,7.522137
2160,6.465108,-18.657736,9.084052
2161,15.036199,-17.321045,1.5861423
2162,20.495422,-12.740883,-13.208381
2163,3.5760734,-8.366803,-4.9896336
2164,1.721935,-3.6834514,-7.2556367
2165,6.6924257,-0.8210373,-7.5239315
2166,6.8721867,1.4644074,-10.973485
2167,5.521139,9.544372,-13.210773
2168,-2.8510482,13.657334,-15.989738
2169,-7.071987,14.685052,-15.501004
2170,-8.118847,13.877773,-16.066309
2171,-6.969096,12.435799,-21.21656
2172,-4.765007,10.406685,-26.019554
2173,-0.85094756,7.0579295,-20.909979
2174,0.79471624,5.091029,-14.090137
2175,-0.9610174,1.7374884,-7.4593253
2176,-1.7994026,-0.93349993,-5.5716877
2177,-1.820938,-2.6679974,-3.4540396
2178,-2.635395,-4.299304,-1.0202397
2179,-3.179164,-5.6934223,0.19202402
2180,-4.0178485,-8.886644,7.304091
2181,0.68225354,-14.37219,52.82575
2182,6.0338016,-20.46641,27.076582
2183,13.323236,-15.253945,-20.795124
2184,-0.5922236,-11.085649,-16.173986
2185,-4.429713,-7.7440715,-4.833801
2186,-3.1695926,-7.1784678,-0.77587277
2187,-10.301102,-23.499014,-19.168604
2188,-17.743977,-36.559338,-18.121742
2189,-11.120344,-40.13601,-10.882557
2190,-0.28803602,-29.336903,-6.6735826
2191,3.4489548,-24.131617,-10.029516
2192,1.5541383,-19.074684,-14.698511
2193,1.1829517,-18.947567,-16.899908
2194,3.5039897,-21.297617,-14.583357
2195,9.236594,-24.09333,-13.407285
2196,12.408281,-25.983362,-13.654044
2197,18.387346,-31.272398,-20.957836
2198,14.506786,-35.771202,5.8932233
2199,14.487644,-33.064323,25.67768
2200,11.31835,-27.013472,34.33252
2201,-1.7706888,-21.522842,35.0393
2202,-11.501401,-19.414764,32.22923
2203,-16.20599,-14.312369,22.575384
2204,-17.240885,-8.991928,19.14288
2205,-14.38535,-5.7197433,14.402101
2206,-3.100201,-6.6948185,14.490635
2207,4.0624146,-6.213263,12.037692
2208,6.788438,-4.1410785,13.424632
2209,8.637791,-3.158825,15.281163
2210,10.194621,-2.44038,11.374283
2211,11.337493,-3.8560338,-1.1733804
2212,8.946764,-4.6992044,-6.647261
2213,5.3629136,-4.2200418,-3.4133615
2214,2.7233312,-2.955435,-1.5711871
2215,0.94337034,-1.6905292,-1.2861422
2216,0.75643104,-0.89282197,-1.4751751
2217,0.30867413,0.8703892,-2.6682963
2218,-0.25932217,2.3171496,-3.7127635
2219,-1.1718849,3.0717862,-0.81894356
2220,-0.8557332,2.8369904,0.90329057
2221,-3.6631124,-1.0486546,2.2328026
2222,-2.2474587,-3.568596,2.7741787
2223,-0.46031925,-4.8502517,1.3082758
2224,1.2379866,-9.535697,-0.9556335
2225,4.843073,-30.563524,18.09602
2226,7.140482,-70.97561,21.454348
2227,-8.296215,-77.65906,1.7347964
2228,-28.9047,-75.17471,17.147266
2229,-18.70948,-47.6073,14.136198
2230,-0.050847482,-27.770203,11.963515
2231,5.193023,-21.074785,10.339387
2232,11.936296,-19.386051,1.9597218
2233,21.171097,-12.676277,-12.9353
2234,8.5681,-9.799207,-7.8592257
2235,2.874079,-6.5342007,-7.409076
2236,6.1342998,-4.560421,-6.3957157
2237,5.1379886,0.50368917,-15.410077
2238,-0.34546378,8.912068,-14.329718
2239,-5.5651073,12.656238,-12.830016
2240,-9.934701,14.507983,-17.41257
2241,-10.9070835,14.282759,-17.206488
2242,-9.194421,13.499408,-23.410778
2243,-4.5951166,10.095319,-26.383862
2244,-1.7946169,8.200502,-19.683659
2245,-0.06520442,6.521339,-14.957235
2246,-1.1312069,2.6069803,-8.412566
2247,-1.6582261,-0.15493527,-5.9093747
2248,-1.835295,-1.5203397,-3.2479577
2249,-2.4822545,-2.9386854,0.10079765
2250,-1.8281165,-4.70399,3.5790644
2251,8.256734,-7.616953,62.961147
2252,7.6627154,-18.69602,33.68586
2253,6.1271214,-18.487844,-26.752655
2254,-0.7573284,-11.95514,-18.150457
2255,-1.3444673,-10.458131,4.5684967
2256,-2.3216362,-11.126327,10.310673
2257,-3.6583266,-13.69203,-13.618152
2258,-12.466606,-23.671597,-9.363713
2259,-16.565212,-33.10739,-12.597613
2260,-8.633903,-34.607094,-8.76491
2261,4.5388856,-23.175684,-15.103197
2262,4.3354955,-19.431515,-17.896519
2263,3.3556347,-17.752352,-15.67598
2264,2.8669007,-20.301006,-14.511572
2265,4.0887356,-22.809282,-12.690933
2266,9.02812,-23.575884,-14.200206
2267,18.140587,-29.660233,-17.050955
2268,10.597214,-35.574993,-17.956339
2269,7.262815,-39.47709,8.475677
2270,9.672687,-37.493736,31.987553
2271,-1.5693926,-26.785854,62.165833
2272,-13.041482,-21.520449,44.76014
2273,-27.328428,-15.598811,21.758535
2274,-20.752651,-6.8838515,13.738391
2275,-14.579469,-5.8707905,11.386247
2276,-3.0930223,-5.1903315,11.527423
2277,6.625427,-3.8129628,8.940184
2278,9.861719,-1.8364913,10.641181
2279,10.872687,-0.8641081,12.138191
2280,12.341282,-0.60777694,9.687641
2281,12.034403,-1.7264216,4.1228333
2282,11.210374,-3.4752758,-2.5558336
2283,7.2433734,-3.9373896,-1.8514465
2284,3.5234313,-3.0200412,0.29012975
2285,2.4382863,-1.8173488,0.8458628
2286,2.2537398,-0.28923243,0.040977087
2287,0.19351953,0.750449,0.06729814
2288,-1.5526428,1.6657037,1.9405792
2289,-3.4307094,1.9411774,4.3815575
2290,-4.4201417,0.2955136,1.7081763
2291,-3.313461,-1.9396819,0.49142596
2292,0.13609178,-7.018149,0.110368945
2293,2.0572293,-10.714461,0.58474606
2294,7.0926256,-20.955145,1.5000007
2295,12.448959,-46.541595,12.157333
2296,8.175378,-68.58727,2.8725836
2297,-14.617754,-67.32476,12.57189
2298,-25.512573,-57.936817,16.119549
2299,-26.228926,-44.01657,5.854938
2300,-12.565011,-29.116465,4.9253263
2301,-3.5937204,-22.320549,7.778468
2302,13.759329,-20.195723,3.289234
2303,22.181765,-16.46591,-12.820445
2304,12.432209,-11.890533,-8.659326
2305,2.018944,-7.0492554,-6.7836523
2306,3.4896326,-1.9492532,-8.022237
2307,6.163014,3.1363924,-10.647761
2308,3.825226,9.093923,-14.281562
2309,-0.7477571,14.531911,-12.849158
2310,-4.2260237,17.665012,-15.268601
2311,-5.7257257,16.67588,-22.071695
2312,-4.738686,13.666905,-27.353851
2313,-3.6248271,13.393825,-23.933012
2314,-1.9384855,10.893026,-17.934803
2315,-0.56111693,7.663912,-12.6574335
2316,-0.7501499,6.0828543,-9.167203
2317,-1.34686,0.78873414,-4.857729
2318,-2.0461624,-1.9444675,-3.0729825
2319,-3.4860435,-2.5983062,-1.6070795
2320,-3.452544,-3.3338,-0.09302098
2321,-4.566403,-5.556732,1.6674982
2322,-3.0786655,-16.310377,74.41888
2323,-0.7070791,-26.246872,20.132013
2324,11.370993,-14.173586,-45.164528
2325,-1.3253247,-14.801104,-12.763017
2326,-0.49381876,-12.609278,-4.304389
2327,-0.24496523,-19.120148,5.488537
2328,-8.442178,-30.029325,-16.27239
2329,-17.578573,-43.721954,-17.220846
2330,-6.794121,-30.666414,-7.847262
2331,3.4657044,-20.442482,-13.18206
2332,4.642076,-18.803997,-14.334503
2333,1.9064814,-18.631414,-9.639187
2334,3.0035906,-19.764416,-11.193923
2335,7.2098737,-21.012571,-13.189239
2336,19.458134,-25.101606,-17.958733
2337,21.027227,-30.709486,-22.639692
2338,14.070695,-35.057545,-5.346463
2339,14.09223,-35.84568,18.915262
2340,13.052548,-30.546774,34.117165
2341,11.4954195,-28.179974,35.947075
2342,-10.818549,-24.929323,44.501415
2343,-20.417356,-18.949959,28.64089
2344,-25.493431,-12.094223,16.445272
2345,-19.185951,-5.144868,9.479167
2346,-7.450352,-4.9435716,12.746865
2347,-0.6017949,-3.2045877,11.050653
2348,1.9208384,-3.4223347,12.270096
2349,7.2266235,-2.5049863,13.276278
2350,9.550353,-2.5959134,13.060624
2351,12.827324,-2.6823542,5.512465
2352,12.695719,-4.383053,-4.4817567
2353,9.706186,-4.165007,-4.371388
2354,4.9103713,-2.8546374,-1.3363914
2355,3.3580275,-2.4020948,-0.7710871
2356,1.1183455,-0.8593224,-1.4201403
2357,0.66071814,0.3696911,-2.2633111
2358,-0.66161543,1.2296118,-3.5688949
2359,-1.468894,1.8020946,-1.9232312
2360,-2.9207392,2.2094727,2.7119653
2361,-2.894119,1.538585,4.0534415
2362,-2.3312075,-3.2237303,4.3265224
2363,-1.1647065,-5.4442697,3.2246277
2364,1.4536397,-7.9570327,0.695115
2365,4.8382874,-18.83989,3.2102706
2366,12.26202,-39.95864,13.647464
2367,9.102298,-77.65906,5.469095
2368,-21.246172,-74.70781,15.075082
2369,-28.267311,-67.10671,11.46521
2370,-19.516758,-41.300117,11.165808
2371,-6.686444,-24.378376,13.127624
2372,9.229416,-18.631414,0.2757728
2373,19.21616,-13.406985,-14.238491
2374,5.957231,-10.077073,-7.0878396
2375,1.7291135,-8.30459,-7.1527452
2376,-0.096311115,-3.309872,-9.073882
2377,3.2479577,2.0057836,-9.327821
2378,3.4298122,5.0718865,-12.87548
2379,-1.11685,9.652048,-12.051452
2380,-6.4444695,12.478869,-13.378571
2381,-7.7404823,12.55544,-15.563217
2382,-7.663613,11.580664,-22.71387
2383,-7.1078796,10.907383,-22.888544
2384,-3.99392,10.519446,-17.843876
2385,-2.5061827,9.398409,-13.687544
2386,-0.59700924,6.4567327,-8.831908
2387,-0.76689965,3.2081769,-5.480461
2388,-1.5215361,0.5925227,-2.4239295
2389,-1.5239289,-0.60777694,-0.22013968
2390,-2.9012976,-1.7766708,0.78843504
2391,-3.0499516,-1.9468603,0.6735796
2392,-2.6620152,-2.7326035,0.6445666
2393,13.064512,-7.4563346,52.84758
2394,10.436595,-10.759925,36.81208
2395,-0.098703936,-12.894323,-19.333708
2396,3.6143587,-16.724634,1.698605
2397,0.25573292,-23.542383,1.9908284
2398,-4.3651066,-24.275187,-11.8334055
2399,-13.67887,-38.054256,-6.51775
2400,-13.714762,-41.76014,-6.268597
2401,-4.6501517,-29.265118,-2.8719854
2402,3.60718,-21.472591,-6.6592255
2403,6.174978,-18.78007,-11.900404
2404,9.94816,-16.84936,-14.509179
2405,15.9128685,-16.363018,-18.258135
2406,20.03301,-20.22683,-15.742978
2407,21.594925,-22.732712,-16.164413
2408,11.696715,-27.466015,-14.485251
2409,5.2289157,-31.74199,-9.294321
2410,6.541678,-35.160435,0.9299107
2411,2.6536403,-34.573597,28.492537
2412,-13.247563,-29.32494,57.523457
2413,-24.185455,-26.392834,42.925144
2414,-29.786156,-16.204794,17.89951
2415,-21.061625,-9.102298,13.89901
2416,-14.455042,-7.1018977,15.846468
2417,-0.5946164,-5.9904313,17.11616
2418,9.071191,-5.0392847,13.659428
2419,14.224134,-3.688237,10.382458
2420,15.673287,-2.9096723,4.0510488
2421,14.573786,-3.417549,-3.202494
2422,10.379168,-3.0272198,-3.6000016
2423,7.626823,-2.3635106,-1.451247
2424,4.0480576,-1.5011971,0.50817573
2425,1.8966111,-0.08793623,0.031405795
2426,1.396212,0.7791629,-0.98674023
2427,0.6343971,1.3854443,-2.3353949
2428,-0.096311115,1.6319051,-2.0288146
2429,-0.48424748,1.591227,-1.3172488
2430,-0.47946185,1.9914266,-0.2943172
2431,-2.2402802,-1.407877,0.07686943
2432,-2.0629122,-4.2248273,1.3513466
2433,-0.7070791,-4.8646083,0.50099725
2434,-0.5371887,-10.709676,1.358525
2435,2.8812575,-31.730024,22.161127
2436,-2.312065,-77.65906,10.054341
2437,-12.037992,-77.65906,0.8530413
2438,-24.60719,-65.82774,10.087841
2439,-19.097416,-41.048573,6.8802624
2440,-3.8069808,-24.38077,7.8071823
2441,0.32063824,-19.034006,11.460424
2442,24.503101,-14.063217,-10.197312
2443,18.284454,-13.121941,-11.706586
2444,5.554639,-7.839784,-4.817051
2445,1.1303096,-4.8215375,-8.388638
2446,5.2743793,-1.7647067,-7.6678
2447,5.0826545,4.8589253,-14.720047
2448,1.9567307,10.375578,-13.177275
2449,-2.566003,14.836099,-14.42543
2450,-5.553143,15.358332,-17.261524
2451,-7.024131,14.888741,-17.426928
2452,-4.6764727,13.556836,-22.869402
2453,-2.3913271,10.550553,-23.350958
2454,-0.8892327,9.029316,-20.256142
2455,0.4642076,6.6744795,-15.218352
2456,1.1470593,4.648058,-10.199706
2457,1.1470593,4.648058,-10.199706
2458,-1.6701902,-0.31076783,-3.6338003
2459,-3.0858438,-2.7996025,-2.0647068
2460,-3.6750765,-3.8488553,-0.91465646
2461,-3.6750765,-3.8488553,-0.91465646
2462,4.1868415,-16.312769,64.393845
2463,-3.5626137,-20.84986,19.030119
2464,5.111667,-11.694023,-34.619358
2465,-2.6691937,-12.783954,-0.60329044
2466,-2.513361,-14.856138,14.711074
2467,-3.05713,-18.863817,-17.56601
2468,-11.391032,-31.983963,-13.737793
2469,-16.694723,-47.399124,-18.905094
2470,-3.670291,-32.760136,-13.634902
2471,4.383352,-23.987747,-20.579472
2472,4.17727,-20.229221,-15.139389
2473,3.2766714,-20.064117,-11.665908
2474,3.7339997,-21.211475,-12.724731
2475,3.7339997,-21.211475,-12.724731
2476,21.987946,-26.85764,-11.404791
2477,23.621647,-28.220652,-12.882658
2478,12.853645,-35.040794,-10.724332
2479,12.853645,-35.040794,-10.724332
2480,8.407781,-32.352757,42.295235
2481,-12.914662,-21.690638,60.781284
2482,-22.484756,-19.35255,45.16034
2483,-28.875687,-15.328123,26.80111
2484,-16.369001,-7.9426756,9.987043
2485,-16.369001,-7.9426756,9.987043
2486,2.0548365,-4.914858,10.509277
2487,10.544571,-2.5935206,7.6923265
2488,11.196017,-1.6689938,5.8429737
2489,10.633105,-0.78753775,6.6000032
2490,10.165907,-1.2640085,4.633103
2491,9.514461,-1.774278,1.9812572
2492,6.908079,-1.7814565,-0.6511469
2493,4.7306104,-1.448555,0.32841492
2494,2.926721,-1.1204392,0.80757767
2495,2.926721,-1.1204392,0.80757767
2496,0.102592275,0.669093,-0.25603202
2497,0.102592275,0.669093,-0.25603202
2498,-2.3790638,1.7757735,3.2461631
2499,-3.8763726,0.51565325,3.3780673
2500,-3.6894333,-1.2616158,2.1299112
2501,-0.5057829,-5.5040903,2.187339
2502,0.6439684,-8.635098,1.6483557
2503,1.6932211,-13.459627,1.631606
2504,5.892326,-27.415766,12.346665
2505,2.80708,-75.42865,2.2064817
2506,-6.873084,-72.98289,6.712466
2507,-22.939692,-65.66713,11.414961
2508,-22.939692,-65.66713,11.414961
2509,-8.092526,-27.885357,8.873184
2510,6.1677995,-20.607885,12.507284
2511,16.873287,-20.147865,1.6220347
2512,19.21616,-14.990436,-13.42882
2513,7.928618,-11.967104,-5.9859447
2514,2.2034905,-7.8780694,-5.988338
2515,7.2122664,-4.8502517,-8.02463
2516,6.172585,-2.5767708,-11.150852
2517,5.391927,3.0837502,-15.230316
2518,-1.265205,10.057034,-13.88884
2519,-6.7965136,14.184354,-15.436398
2520,-9.110672,13.870595,-15.75255
2521,-9.568001,13.945071,-15.857834
2522,-6.5258255,11.848959,-26.767012
2523,-3.2560334,9.3358965,-24.005096
2524,-0.3909274,6.8446693,-14.379967
2525,-0.12263216,4.5209394,-9.828519
2526,-1.1599208,1.1769696,-5.753542
2527,-1.8305093,0.24017957,-4.599005
2528,-2.1828525,-2.0904298,-1.8897316
2529,-2.0605195,-3.6571302,-0.5171488
2530,-1.4880366,-5.973682,1.3896317
2531,13.7354,-8.127222,78.709206
2532,13.651352,-17.23251,33.122948
2533,12.092129,-13.9986105,-25.741688
2534,-3.0212376,-11.2343025,-12.623934
2535,-2.0988045,-8.400303,0.36430725
2536,0.70618176,-9.52134,5.8046885
2537,0.80189466,-14.338691,14.241482
2538,-18.146269,-37.64209,-12.796516
2539,-19.748863,-50.879784,-15.230316
2540,-0.055633128,-37.093536,1.3489537
2541,7.5622168,-26.411976,-2.0045872
2542,7.5622168,-26.411976,-2.0045872
2543,1.4488541,-18.05654,-16.993229
2544,1.8631115,-18.78964,-13.491034
2545,5.1065826,-19.66631,-12.226426
2546,10.199706,-21.544376,-11.665908
2547,14.099408,-25.585556,-11.850155
2548,8.745467,-30.522846,-9.696614
2549,9.3562355,-34.127934,18.330816
2550,8.78136,-30.54438,32.69164
2551,5.391927,-27.149862,39.966717
2552,5.391927,-27.149862,39.966717
2553,-24.25724,-14.95903,23.962624
2554,-23.217558,-11.473584,17.604893
2555,-18.021843,-5.6742797,10.039985
2556,-3.6894333,-5.5519466,17.722141
2557,-0.13220344,-5.451448,17.097017
2558,7.897511,-5.4370914,12.787543
2559,10.388739,-4.625027,13.613964
2560,12.120843,-3.293122,9.575179
2561,12.906587,-3.712165,-4.074379
2562,11.483455,-3.7049868,-4.615755
2563,7.396813,-3.1636107,-2.9413772
2564,7.396813,-3.1636107,-2.9413772
2565,1.0127622,-0.98853487,-0.3062813
2566,1.1039885,-0.24616162,-0.2105684
2567,0.7612167,0.83688974,-0.92183495
2568,-0.7190432,1.5625132,-1.9615164
2569,-0.6041877,1.5840486,-0.79740816
2570,-1.7659031,1.7662022,-0.035593238
2571,-2.204388,-1.9229321,1.5861423
2572,-0.67118675,-5.0659046,2.0748763
2573,1.558924,-5.6503515,0.026620151
2574,3.566502,-10.043574,-1.3770695
2575,11.869298,-49.059147,20.61357
2576,5.93091,-77.65906,6.472884
2577,-12.732509,-76.72227,15.247664
2578,-21.207886,-71.08568,18.04308
2579,-22.182663,-48.943993,5.1361938
2580,-9.742975,-30.68795,6.9448686
2581,-2.1972094,-20.689241,7.704291
2582,9.9960165,-20.57648,4.8918266
2583,9.9960165,-20.57648,4.8918266
2584,7.724929,-9.559626,-8.865408
2585,0.526421,-5.535197,-6.74776
2586,0.14327025,-1.8798612,-7.6941214
2587,1.7626129,1.8140587,-11.112268
2588,2.0500507,5.7020965,-14.631513
2589,-1.428216,10.7228365,-11.31835
2590,-4.35075,12.891033,-12.540185
2591,-4.35075,12.891033,-12.540185
2592,-7.268498,12.361621,-23.31985
2593,-6.219245,11.499008,-25.703402
2594,-6.219245,11.499008,-25.703402
2595,-0.26171497,7.5009007,-12.298211
2596,-0.46271208,6.154639,-9.057133
2597,-1.4353945,1.9746768,-3.8706896
2598,-2.1131616,-1.096511,-2.5701907
2599,-2.5971098,-2.004288,-1.3818551
2600,-3.6726837,-3.9421754,0.8554341
2601,-3.1743784,-4.450052,2.3144577
2602,8.625827,-8.687741,68.43503
2603,6.4145594,-13.840385,55.674103
2604,-6.559325,-17.987146,-30.446575
2605,2.3685954,-18.365513,5.8860445
2606,1.6187445,-23.058435,22.474886
2607,-3.6846478,-21.67389,-15.306887
2608,-8.605188,-29.336903,-7.435397
2609,-13.137494,-37.917564,-6.7525454
2610,-11.26182,-35.86243,-6.719046
2611,-11.26182,-35.86243,-6.719046
2612,3.2814572,-14.92553,-17.21606
2613,3.4345977,-14.590236,-15.762121
2614,5.267201,-14.61895,-16.495222
2615,6.8506513,-17.52234,-9.085847
2616,8.446066,-18.768105,-8.386245
2617,14.240884,-23.063221,-10.971092
2618,14.240884,-23.063221,-10.971092
2619,6.788438,-35.359337,-11.792727
2620,5.861219,-37.414474,20.251953
2621,6.7740808,-33.842888,37.736607
2622,6.7740808,-33.842888,37.736607
2623,-11.580364,-17.313866,27.387949
2624,-15.336497,-15.7642145,18.48635
2625,-16.4025,-8.263613,12.550355
2626,-7.280462,-4.1291146,18.148663
2627,-2.0198414,-4.8095737,18.541384
2628,4.8287163,-4.701597,14.883656
2629,9.339486,-4.5508494,13.616357
2630,10.853544,-4.093222,11.441281
2631,11.445169,-4.4261236,3.3780673
2632,11.205588,-4.4691944,1.3920245
2633,9.754043,-4.203292,-3.0275187
2634,3.7917266,-3.525525,-1.2140584
2635,0.3062813,-2.1095722,0.00029910283
2636,-0.4244269,-1.1300105,-0.8428718
2637,-0.5563313,-0.1477568,-1.5687944
2638,-0.5563313,-0.1477568,-1.5687944
2639,-0.7405786,2.14696,-2.292324
2640,-1.3827524,2.4128625,-0.19381863
2641,-1.6366907,2.4442682,2.053341
2642,-0.005383851,-2.4475584,3.140879
2643,-0.33349967,-4.6752763,2.7191439
2644,1.2403795,-8.084151,0.40528435
2645,4.555635,-25.985754,16.34238
2646,6.302097,-77.46733,9.189336
2647,-4.681258,-77.63752,-0.21296121
2648,-22.0702,-77.65906,7.622935
2649,-22.0702,-77.65906,7.622935
2650,-3.1839497,-23.178076,12.272489
2651,-2.7936203,-20.327627,10.765608
2652,6.369096,-18.145073,4.616353
2653,24.9703,-13.785351,-17.740686
2654,7.85444,-11.15504,-8.070093
2655,2.3231318,-6.1124654,-5.5740805
2656,2.3231318,-6.1124654,-5.5740805
2657,2.8908288,5.124828,-10.561321
2658,2.0835502,6.986145,-13.936696
2659,-1.5574285,11.099108,-12.727124
2660,-6.99781,15.027823,-13.095919
2661,-8.602796,14.330615,-18.929022
2662,-7.637292,12.296716,-24.304499
2663,-5.6467624,11.633306,-20.847767
2664,-2.2211375,9.530014,-15.354743
2665,-0.99690974,6.3607206,-9.864411
2666,-1.4330016,5.6132627,-8.748159
2667,-1.0546366,2.8657043,-5.9787664
2668,-1.0546366,2.8657043,-5.9787664
2669,-3.4331024,-2.9362924,-0.75673014
2670,-3.2081769,-3.946961,0.47946185
2671,-3.545864,-5.2836514,1.5861423
2672,-3.545864,-5.2836514,1.5861423
2673,6.3643103,-19.374086,22.738396
2674,9.2437725,-14.779568,-35.807693
2675,9.2437725,-14.779568,-35.807693
2676,-0.26171497,-19.144077,6.3747787
2677,-1.0256236,-17.076677,-12.743875
2678,-8.645866,-22.548166,-11.792727
2679,-13.007982,-37.83621,-8.973084
2680,-2.4966114,-30.376585,-4.6396832
2681,4.927121,-24.210579,-13.582259
2682,7.0112696,-18.54288,-17.058134
2683,6.5751777,-17.37877,-19.961525
2684,6.3403816,-18.35594,-13.524532
2685,10.496715,-18.937994,-10.875379
2686,14.171193,-20.382662,-11.409576
2687,16.068401,-21.347866,-12.094522
2688,11.991331,-29.851957,-15.112769
2689,3.4872398,-37.754852,4.7985067
2690,3.2886357,-37.70939,20.443378
2691,2.6464617,-37.12464,29.505596
2692,-16.771294,-22.167109,47.74489
2693,-25.804798,-16.351055,22.927727
2694,-21.059233,-10.450952,12.054442
2695,-21.059233,-10.450952,12.054442
2696,-1.3058829,-4.9172506,17.104195
2697,3.1208389,-3.9373896,18.002401
2698,11.299208,-3.525525,13.827225
2699,15.596717,-3.784249,11.239985
2700,15.725929,-4.083651,5.9697933
2701,12.446566,-4.5003014,-1.9088743
2702,6.5847487,-3.8297126,-3.9714873
2703,3.4537404,-3.35055,-2.2561326
2704,0.7109674,-2.207977,-0.9098708
2705,-0.1274178,-1.0534402,-2.277668
2706,-0.4459623,-0.37776688,-2.9605198
2707,-0.45553362,-0.116650105,-3.1546376
2708,-2.077269,2.1735802,-3.159423
2709,-3.653541,1.986641,-1.1566306
2710,-3.9696927,1.4500505,-0.5171488
2711,-2.7649066,-2.0617158,2.3790638
2712,-1.4928222,-7.262516,4.1901317
2713,0.36370903,-10.726426,3.3469608
2714,3.1830523,-24.145973,1.5263218
2715,3.1830523,-24.145973,1.5263218
2716,4.9606204,-30.750463,-0.8380861
2717,-23.471497,-61.49644,7.007082
2718,-12.943376,-35.390446,7.7880397
2719,-4.3244286,-23.012972,6.233303
2720,-0.8365906,-19.062721,7.3136625
2721,15.196518,-15.711273,-1.5041882
2722,21.724438,-14.235799,-14.940486
2723,5.034798,-9.9502535,-6.2638116
2724,0.7923234,-4.3758745,-6.213562
2725,0.5383851,0.67148584,-9.217452
2726,1.5517455,6.3009005,-9.701401
2727,1.0342976,10.296615,-12.353246
2728,-2.4990041,13.561622,-14.777474
2729,-3.6343985,14.529518,-16.203
2730,-4.336393,13.396217,-21.049063
2731,-2.8725836,12.167503,-21.992731
2732,-2.0964117,10.981561,-19.975882
2733,-0.9107681,9.51805,-17.21606
2734,0.43070808,6.707979,-10.302597
2735,-0.5204389,3.9795632,-4.9896336
2736,-1.3420744,1.6489539,-3.7917266
2737,-1.727618,-0.41844487,-3.8371902
2738,-2.7026932,-2.562414,-2.388037
2739,-3.723232,-4.232006,-0.08344969
2740,-3.9601214,-6.1773705,0.08644072
2741,-4.41057,-7.6983085,-0.097806625
2742,2.9410782,-17.100904,55.83233
2743,1.5421742,-23.211576,10.794322
2744,10.465608,-15.953248,-22.332811
2745,7.9238324,-19.905891,0.22313072
2746,0.69900334,-20.741884,1.2436695
2747,-3.263212,-24.002106,-13.44557
2748,-11.987443,-33.993935,-11.059627
2749,-11.067702,-28.860132,-3.3990045
2750,-2.7696922,-20.052153,-2.836093
2751,1.396212,-15.869499,-13.007384
2752,3.2045877,-14.915959,-15.711872
2753,4.141378,-15.627524,-12.652648
2754,5.497211,-18.111574,-12.425031
2755,9.320343,-20.243578,-10.79851
2756,19.35285,-24.879074,-14.969199
2757,21.058334,-32.300114,-13.733007
2758,10.664212,-36.767815,-17.738293
2759,8.012366,-38.3058,-8.697611
2760,6.754938,-38.638702,22.048365
2761,-8.983554,-32.566017,78.709206
2762,-18.227924,-19.637596,62.561245
2763,-27.42414,-15.323338,29.18466
2764,-24.753153,-10.110573,10.660324
2765,-9.544072,-5.8947186,3.286841
2766,-1.5454643,-5.738886,12.080763
2767,2.780759,-3.3385859,14.976976
2768,6.8602223,-2.5408785,11.422139
2769,11.119447,-1.5059828,8.533105
2770,12.978371,-2.0928226,5.093123
2771,12.978371,-2.0928226,5.093123
2772,10.458131,-2.167299,-1.410569
2773,6.9655066,-1.5514464,-0.2847459
2774,2.7975087,-0.5766702,-0.40677986
2775,1.4656038,0.0029910284,-0.1794617
2776,0.9098708,0.61884373,-0.97477615
2777,0.39960137,1.8738792,-2.7017958
2778,0.32063824,2.417648,-1.8418752
2779,1.7291135,2.2836502,0.3499503
2780,-0.6233303,-1.2879368,2.7047868
2781,-0.6879365,-2.902494,2.934797
2782,-0.6879365,-2.902494,2.934797
2783,3.3795629,-8.031509,-1.288535
2784,7.1715884,-28.153652,-2.1604197
2785,10.867902,-54.76513,18.110376
2786,10.867902,-54.76513,18.110376
2787,-26.758337,-71.387474,16.646568
2788,-32.23431,-58.48537,16.807186
2789,-32.23431,-58.48537,16.807186
2790,-6.4731836,-20.511873,2.4963121
2791,-2.268994,-17.809778,6.897012
2792,17.963518,-15.986747,-4.189533
2793,17.963518,-15.986747,-4.189533
2794,1.3097713,-6.8168526,-4.342674
2795,2.2561326,-3.5207393,-4.587041
2796,6.0601225,1.3325031,-12.338889
2797,4.7832522,5.328218,-11.845369
2798,4.28734,6.5237317,-11.917154
2799,-1.3301103,12.409477,-14.154742
2800,-3.2943187,13.214363,-15.014663
2801,-3.2943187,13.214363,-15.014663
2802,-6.087341,10.377971,-22.62025
2803,-2.6955147,7.5993056,-24.532116
2804,-0.58265233,6.018248,-18.224634
2805,-0.12263216,5.3306108,-14.310276
2806,-0.12263216,5.3306108,-14.310276
2807,-0.8365906,1.8906289,-3.4947174
2808,-1.9217356,-0.61016977,-2.2058833
2809,-1.9217356,-0.61016977,-2.2058833
2810,-3.2488549,-3.990331,1.2077773
2811,-2.6306095,-5.029713,2.2591236
2812,8.886943,-11.442478,61.327446
2813,-4.0585265,-14.693426,-23.801407
2814,1.6067804,-8.637491,-14.9763775
2815,-1.2317054,-9.4280205,4.812864
2816,0.24137598,-11.773286,19.336699
2817,-1.3181462,-17.598911,-16.571793
2818,-12.9338045,-31.212576,-14.312669
2819,-12.9338045,-31.212576,-14.312669
2820,-0.36221352,-37.100716,0.46271208
2821,5.4445686,-29.940493,-6.39093
2822,5.4445686,-29.940493,-6.39093
2823,6.1438713,-22.51706,-16.737196
2824,12.489636,-21.628126,-18.298813
2825,15.632609,-25.379473,-13.82902
2826,15.78575,-27.652954,-15.465112
2827,12.331411,-29.303404,-7.763513
2828,9.969695,-31.025936,11.161022
2829,7.8664045,-29.82085,30.566814
2830,2.9673991,-21.736101,39.79683
2831,2.9673991,-21.736101,39.79683
2832,-19.828125,-14.386547,27.42414
2833,-23.10988,-10.438988,13.204193
2834,-12.871592,-3.5590246,5.5316076
2835,-3.370889,-3.932604,15.503995
2836,4.0719857,-6.139086,15.645471
2837,7.3082786,-6.8671017,15.6670065
2838,10.094122,-4.907679,16.411772
2839,11.069198,-4.0238304,15.884753
2840,12.45853,-3.3385859,12.718151
2841,12.309876,-4.639384,-2.8166513
2842,7.16441,-3.879962,-3.5784662
2843,5.044369,-3.2739797,-2.984448
2844,4.234698,-2.5384858,-2.198705
2845,1.2738789,-0.43280178,-1.9878374
2846,0.4019942,0.6236294,-2.2010977
2847,-0.21355942,1.7398812,-2.946163
2848,-1.2843475,1.7518452,-1.5520446
2849,-2.990131,1.835594,-1.1231312
2850,-4.42732,-2.7589245,1.21017
2851,-2.757728,-4.974678,0.82672024
2852,0.5312066,-6.431309,-1.7195421
2853,0.61764735,-14.484952,-0.57457656
2854,8.005188,-41.491844,-8.522935
2855,4.002295,-77.65906,23.301308
2856,-23.632114,-77.65667,16.426128
2857,-31.527533,-59.73353,14.246268
2858,-12.008979,-35.30191,4.9902315
2859,-3.0786655,-25.540092,0.94666046
2860,-3.0786655,-25.540092,0.94666046
2861,17.651854,-14.470595,-6.4459653
2862,20.129023,-14.070395,-10.468
2863,9.907183,-9.344272,-6.218348
2864,9.907183,-9.344272,-6.218348
2865,1.7027924,1.212862,-7.3011003
2866,1.6501503,2.6452653,-8.151449
2867,3.6526437,7.5466633,-12.369996
2868,3.1830523,8.037491,-12.68854
2869,-7.2086773,13.115958,-14.626726
2870,-8.332108,13.3435755,-14.902201
2871,-6.017949,11.293225,-23.343779
2872,-3.2727833,9.719346,-23.827728
2873,-0.04366901,7.2493553,-15.438791
2874,0.2844468,5.2492547,-9.265608
2875,-1.0160524,3.112464,-3.9690945
2876,-0.8892327,1.2702898,-2.905485
2877,-2.175674,-1.7862421,-2.4143581
2878,-3.679862,-3.5374892,0.0026919255
2879,-4.0154557,-4.9842496,1.1958131
2880,-3.588935,-6.3329043,2.2809582
2881,-3.588935,-6.3329043,2.2809582
2882,-3.3876386,-20.054546,-27.775587
2883,6.0744796,-14.204693,-8.312068
2884,6.5703917,-12.501302,3.1743784
2885,6.5703917,-12.501302,3.1743784
2886,-8.734401,-18.97658,-9.756435
2887,-12.100205,-23.381765,-11.857333
2888,-13.578073,-28.91786,-13.632509
2889,-13.578073,-28.91786,-13.632509
2890,6.9655066,-19.18954,-13.357035
2891,7.248159,-18.504595,-14.269598
2892,5.8133626,-17.598911,-13.431212
2893,7.329814,-20.35634,-14.444573
2894,12.717254,-21.824636,-16.966908
2895,18.018553,-27.662525,-16.895123
2896,15.3356,-34.0394,-14.411074
2897,11.639288,-37.007397,-12.499507
2898,11.639288,-37.007397,-12.499507
2899,9.883255,-41.082073,-4.4674
2900,-20.70001,-30.74777,78.151085
2901,-17.545073,-22.754248,74.371025
2902,-27.68765,-14.068003,22.170698
2903,-21.227028,-9.276974,4.918148
2904,-13.316956,-4.912465,0.23509483
2905,-5.148457,-1.6833507,13.352848
2906,-5.148457,-1.6833507,13.352848
2907,10.15155,-1.2065809,14.421243
2908,14.62882,-3.0487552,12.873685
2909,14.62882,-3.0487552,12.873685
2910,15.076877,-3.6427734,-0.3804588
2911,9.792328,-3.202195,-0.9699905
2912,5.1810594,-2.2151556,-1.9519451
2913,1.7051853,-0.33469605,-4.2445683
2914,0.33738798,0.9828519,-5.238786
2915,-0.99930257,2.0201404,-4.778766
2916,-1.250848,2.3865414,-4.4602213
2917,-2.0605195,2.039283,-3.0514472
2918,-2.7266214,1.4404793,-2.3234308
2919,-1.8619151,-5.539983,1.7371893
2920,-0.369392,-11.744272,2.094019
2921,1.4273187,-21.014965,0.9729815
2922,1.6477575,-40.325043,-2.2752752
2923,-2.5899315,-59.43652,15.628422
2924,-17.34617,-77.65906,4.3121657
2925,-28.65794,-64.60352,2.9587252
2926,-11.405389,-35.903107,-1.3698909
2927,-9.771689,-26.539095,-0.92183495
2928,-0.12023934,-18.128323,-1.817947
2929,5.8277197,-12.896716,5.3757753
2930,19.321743,-13.100405,-5.00399
2931,14.410774,-8.127222,-9.24138
2932,5.3943195,-5.0177493,-3.9427736
2933,2.3829522,-3.8775692,-3.3966117
2934,2.3829522,-3.8775692,-3.3966117
2935,5.523532,6.9499536,-10.230812
2936,4.6707897,8.615059,-8.542078
2937,3.674179,9.795917,-8.407781
2938,-1.4641083,10.2056875,-25.291239
2939,-2.0030916,11.72184,-22.541286
2940,-2.3455644,11.733804,-19.7698
2941,-2.3455644,11.733804,-19.7698
2942,-1.4736797,8.301001,-12.923336
2943,-0.72382885,5.8672013,-9.440284
2944,-0.72382885,5.8672013,-9.440284
2945,-2.408077,-1.0028918,-3.3005998
2946,-2.9566314,-1.8340986,-2.6156542
2947,-3.8356948,-3.769892,-1.0657034
2948,-3.2799616,-4.447659,0.5919245
2949,3.0705895,-9.212367,76.086075
2950,1.2403795,-15.637096,39.125942
2951,-8.365607,-12.704991,-32.846874
2952,1.3722838,-8.175078,-10.712368
2953,0.36131623,-8.711669,-1.3986049
2954,-0.17288144,-8.749954,0.61106706
2955,-4.4057846,-17.98236,4.024728
2956,-13.793725,-33.921852,-19.67618
2957,-15.348462,-41.36712,-11.689836
2958,-8.847162,-36.8396,-6.5201426
2959,-8.847162,-36.8396,-6.5201426
2960,7.8376904,-21.314367,-16.116558
2961,12.7698965,-18.811174,-20.845373
2962,28.268806,-19.953749,-21.338894
2963,27.851858,-27.746275,-16.916658
2964,27.851858,-27.746275,-16.916658
2965,6.1701922,-34.23591,-17.187346
2966,2.7879374,-39.026638,-4.80748
2967,4.0070806,-36.63591,45.972404
2968,-3.4163525,-24.129223,71.958755
2969,-16.340286,-18.820747,41.52385
2970,-20.34318,-17.706888,32.178978
2971,-27.402605,-15.507884,20.373987
2972,-9.9682,-5.0587263,7.5867434
2973,-3.8931224,-4.1027937,17.437098
2974,-0.57547385,-3.8727834,18.500706
2975,4.282554,-3.8297126,16.182062
2976,8.577671,-4.0908294,13.003197
2977,9.82822,-3.4390843,10.684252
2978,9.82822,-3.4390843,10.684252
2979,8.882157,-3.374478,-3.3005998
2980,5.918946,-2.6608188,-3.3029926
2981,0.6343971,-1.1252248,-3.5473595
2982,-0.73818576,-0.032901313,-3.2192438
2983,-0.6999006,1.4596218,-3.3412778
2984,-1.1575279,2.4586253,-3.976273
2985,-2.01027,3.3137603,-2.2489543
2986,-2.664408,0.62123656,0.85064846
2987,-2.556432,-3.269194,3.4857445
2988,-0.9131609,-7.7464643,4.67408
2989,1.3600205,-11.1885395,3.2509487
2990,9.461819,-33.984364,-3.3966117
2991,8.122736,-41.80321,-6.9873414
2992,1.340878,-77.524765,20.28306
2993,-22.99024,-66.908104,18.031115
2994,-27.493532,-51.406803,16.493427
2995,-19.88316,-33.13132,9.817153
2996,-6.7845497,-18.698414,-1.5640087
2997,1.1183455,-11.399407,4.63071
2998,16.439888,-12.944572,-4.2038903
2999,19.549063,-12.616456,-9.802198
3000,5.660222,-5.391628,-5.425426
