,ax,ay,az
501,3.0107691,1.9698912,-4.3378882
502,4.124628,4.738985,-8.108378
503,3.5234313,7.960921,-7.9624166
504,1.7769699,11.436795,-7.7036924
505,0.9529416,12.236895,-15.098412
506,-0.05802595,12.287145,-25.281666
507,-0.9825528,12.711272,-16.873587
508,-0.7645068,11.8848505,-11.823834
509,-0.26650062,6.9619174,-7.54786
510,-0.6903293,4.202395,-5.873482
511,-1.3181462,0.846461,-4.6492543
512,-2.161317,-0.5096712,-3.013162
513,-2.4918256,-1.719243,-1.6070795
514,-2.8462625,-2.5839493,1.1739786
515,-3.8931224,-8.896215,76.08369
516,-1.698904,-15.761522,56.01179
517,-1.1096715,-23.750559,18.97987
518,11.936296,-11.073684,-22.479073
519,0.98644114,-7.9833536,-17.38625
520,-2.2235305,-6.3568325,-4.4339004
521,-7.450352,-13.550554,-4.0624146
522,-16.371393,-30.407692,-8.381459
523,-22.70968,-50.44369,-24.069702
524,-8.26481,-28.747671,-7.1048884
525,1.2738789,-15.634703,-7.9648094
526,1.721935,-13.454842,-10.47518
527,-0.46749774,-15.931712,-11.673086
528,-0.52522457,-17.848064,-15.733407
529,-0.65922266,-20.037497,-19.707586
530,6.2494545,-22.167109,-12.880265
531,13.864613,-25.765316,-13.287643
532,19.549063,-30.50849,-11.821441
533,14.1568365,-32.05096,-12.19532
534,9.442677,-37.32833,-9.675079
535,8.311769,-40.55266,18.991833
536,3.3293135,-30.3718,70.21469
537,-8.013563,-13.596018,59.351273
538,-23.234308,-13.205689,28.36781
539,-20.932413,-7.880462,5.500501
540,-14.210674,-3.6690943,3.191128
541,0.3493521,-2.3754747,17.580965
542,5.933303,-3.6643088,15.808183
543,9.909575,-6.2467628,13.997115
544,12.041581,-6.460023,14.605789
545,12.983156,-5.496912,9.812367
546,11.375778,-5.9234324,-1.1327025
547,7.5287175,-5.575875,-5.1475596
548,4.3594236,-3.9134614,-3.7247276
549,1.4081762,-1.774278,-3.025126
550,0.6750751,-0.49501517,-2.9940193
551,0.3062813,1.0594223,-4.301996
552,-0.3574279,1.6824534,-3.7821553
553,-0.6233303,1.7590238,-1.7003996
554,-0.81984085,1.8116659,-0.10737792
555,-0.25214368,1.4691931,0.2853441
556,-1.3010973,1.5361922,1.9525433
557,-2.0461624,-1.4318053,4.1638107
558,0.5407779,-5.7077794,2.46042
559,3.2117662,-6.680462,-2.349752
560,5.2624154,-26.309086,20.795723
561,-1.9791634,-77.65906,10.26491
562,-8.665009,-77.65906,1.3417753
563,-18.69961,-64.418976,11.61835
564,-17.870796,-37.14618,9.501001
565,-14.548362,-25.76053,4.0438704
566,-7.771589,-13.490734,2.4915266
567,1.6788642,-10.398011,-3.7821553
568,13.01187,-8.807681,-12.027523
569,4.014259,-6.6514487,-7.030412
570,-0.31196424,-3.499204,-8.038987
571,-0.31196424,-0.74895346,-7.586145
572,1.0103694,2.2286153,-8.882157
573,2.4598217,6.451947,-9.881161
574,3.0442686,10.009177,-11.577074
575,2.5866413,11.496615,-14.772689
576,3.2045877,11.360225,-22.99413
577,0.05712864,11.870494,-18.160028
578,-0.52283174,12.395121,-13.759329
579,-0.46271208,10.787742,-11.838191
580,-0.029312078,7.3621173,-8.7984085
581,-0.07238288,4.878068,-6.2805614
582,-0.70229346,1.3301103,-3.4540396
583,-1.7228323,-1.1347961,0.22552353
584,-1.8762721,-2.4738796,1.8592232
585,-2.204388,-4.991428,49.48417
586,-6.25753,-17.292332,65.6752
587,-6.5760746,-23.237898,19.068403
588,2.5004997,-13.816457,-30.022446
589,3.4680972,-6.9798636,-25.279274
590,-3.246462,-10.680962,2.1993032
591,-22.896622,-25.037,27.78097
592,-10.974382,-36.607197,-26.94438
593,-21.52643,-50.44369,-29.593832
594,-4.2741795,-25.005894,-8.395817
595,5.676972,-12.980465,-10.089636
596,4.4814577,-10.644771,-12.6574335
597,2.1194427,-12.810275,-14.221742
598,0.2868396,-17.551056,-9.524331
599,-1.5047864,-21.237797,-16.166807
600,3.5353954,-22.366013,-15.635002
601,11.802299,-29.118856,-8.712267
602,16.842182,-31.193434,-11.943774
603,17.992231,-34.18297,-22.287348
604,10.182656,-40.12644,-0.4214359
605,11.6440735,-39.14658,24.259632
606,6.5943203,-22.320549,69.02665
607,-0.5515456,-12.24497,51.043694
608,-14.977275,-11.75175,27.807291
609,-20.587547,-8.5271225,5.9674006
610,-15.029917,-4.6704907,8.741579
611,-5.3473606,-1.8822541,16.05255
612,3.4824543,-3.5446677,13.024732
613,6.7908306,-5.3676996,17.451454
614,9.042477,-6.730711,21.162123
615,10.906186,-6.79771,10.950154
616,11.509776,-6.8503523,-0.7088737
617,9.929018,-5.9497533,-4.404887
618,6.5225353,-4.7398825,-3.839583
619,2.440679,-2.481058,-2.4646072
620,0.9194421,-0.7923234,-2.4382863
621,0.53359944,0.5901299,-3.243172
622,0.37806597,1.6103697,-2.891128
623,0.27726832,1.905285,-2.1317058
624,0.02841477,1.9842482,-0.18424734
625,-0.50817573,2.3458636,3.0161529
626,1.6211374,1.3806586,1.576571
627,1.5541383,-3.2596226,2.5274189
628,2.0548365,-5.465805,0.26141587
629,5.614459,-7.8756766,-4.004987
630,5.743971,-23.441586,0.63978094
631,10.604392,-74.48737,8.525927
632,-0.8102696,-77.65906,3.4139597
633,-20.94677,-72.59973,4.3241296
634,-31.170702,-51.3084,5.988936
635,-20.798115,-31.835608,5.512465
636,-9.769297,-15.306587,4.4368916
637,-7.400103,-12.832109,4.592425
638,1.5397813,-11.111969,-1.0393823
639,14.726926,-8.275876,-9.780663
640,4.51735,-4.948357,-7.1096745
641,-0.5515456,-0.72502524,-5.9931235
642,-0.15613168,2.1038892,-6.4531436
643,0.30388847,5.4577293,-8.170592
644,2.4765713,9.105886,-11.620145
645,0.090628155,10.976775,-12.379567
646,-0.88683987,10.983953,-13.007384
647,-0.36460635,10.725229,-20.313568
648,-1.5239289,11.22832,-21.451355
649,-1.753939,11.120644,-19.690836
650,-1.8329022,10.155139,-10.755439
651,-1.0809577,7.1273212,-7.370791
652,-1.0546366,3.0813572,-5.051847
653,-1.7994026,0.09182457,-2.6036901
654,-2.757728,-1.7048861,-0.4764708
655,-4.156632,-3.0966115,0.5201398
656,-4.877769,-5.391628,17.101803
657,-5.1388855,-13.028321,51.022156
658,-3.7950168,-17.196619,43.41627
659,12.655041,-20.15983,1.2628121
660,23.20709,-12.556636,-14.95245
661,-0.8365906,-9.576375,-12.374782
662,-1.6223338,-9.602696,-7.066304
663,-9.9394865,-18.669699,-10.130314
664,-20.122742,-37.87928,-16.54308
665,-22.755444,-53.452366,-17.510675
666,-5.787939,-19.500906,-2.5558336
667,1.585245,-9.888041,-4.42403
668,2.795116,-8.467302,-6.8988066
669,2.251347,-9.835099,-13.594224
670,0.008973085,-13.150654,-7.820941
671,-3.0260234,-14.954245,-11.042876
672,2.3374887,-20.684456,-6.96102
673,5.631209,-25.575983,-8.156235
674,11.612967,-29.44488,-12.111272
675,13.867005,-31.643883,-18.272491
676,6.9993052,-36.18576,-4.750052
677,5.382355,-37.016968,27.553352
678,6.5344996,-29.638699,45.588955
679,-1.1766706,-15.059828,40.697426
680,-10.816156,-13.670495,24.271597
681,-13.635799,-10.848459,7.4216385
682,-13.6764765,-5.4299126,2.187339
683,-9.122637,-1.6067804,10.092627
684,0.020937199,1.6896319,20.75983
685,5.743971,-0.3610171,17.384455
686,10.661819,-4.0884366,17.743677
687,9.993624,-6.067002,18.690039
688,7.3250284,-6.076573,9.582357
689,5.3943195,-6.047859,1.0136595
690,3.6646078,-5.118547,-1.5257236
691,0.6367899,-4.2367916,-2.498107
692,-0.8844471,-2.8905299,-2.8959136
693,-1.4114662,-1.4150555,-2.7305098
694,-1.4712868,0.07507481,-2.7855446
695,-1.2819548,0.84406817,-2.565405
696,-1.5406786,1.8738792,-1.9471594
697,-2.0748763,2.5782664,3.191128
698,0.69900334,-3.700201,5.148158
699,1.1279168,-5.113761,4.2978086
700,3.0897322,-9.993324,2.2591236
701,7.248159,-20.57648,0.4531408
702,10.494322,-54.745987,6.753144
703,4.587041,-77.65906,6.7052875
704,-15.722041,-65.27441,-2.4526432
705,-23.52683,-51.574303,6.2934227
706,-23.890839,-37.024143,0.9945169
707,-12.15524,-25.978577,3.0930223
708,-7.606185,-16.008282,3.0161529
709,-2.6548367,-14.094323,5.471488
710,10.812866,-10.213763,-7.2029943
711,15.198911,-9.051749,-6.1393847
712,5.1065826,-5.2142596,-5.7463636
713,2.1747768,-2.399702,-5.446962
714,0.95054877,0.5419743,-6.812366
715,0.7372885,2.5471597,-7.9911304
716,4.217948,8.485547,-8.99492
717,2.426023,10.976775,-11.857333
718,0.9194421,10.232009,-13.155739
719,-0.07956135,10.112068,-21.3365
720,-2.2929223,11.053644,-17.896519
721,-2.606681,11.329118,-14.243277
722,-2.5707889,9.84138,-10.142278
723,-1.3947165,6.739385,-6.9035926
724,-1.1886346,4.37737,-4.587041
725,-1.7347964,1.2152548,-2.9772696
726,-1.9241285,-1.0630114,-1.7844474
727,-2.6691937,-2.548057,0.6517451
728,-2.841477,-4.5652065,9.155837
729,-4.3387856,-12.803097,56.816677
730,-1.591227,-18.087645,35.707493
731,4.174877,-19.225433,4.4225345
732,12.360424,-7.0396843,-22.883759
733,0.30149564,-7.576275,-13.608581
734,-1.4928222,-7.1712894,-6.203991
735,-6.302994,-16.271791,-10.599905
736,-25.735405,-52.887062,-33.119957
737,-22.314568,-56.50202,-24.086452
738,-0.9346963,-25.731817,0.27816564
739,4.57747,-13.9986105,-2.1149561
740,4.9175496,-10.903495,-11.627323
741,1.3360924,-13.644174,-11.953345
742,-2.312065,-15.493228,-10.1016
743,-0.28085756,-17.948862,-10.848759
744,3.6526437,-24.074188,-9.41157
745,9.107083,-26.88396,-8.800801
746,17.019548,-27.576384,-13.416856
747,12.930514,-29.475986,-21.039492
748,9.145667,-33.59852,1.1428719
749,11.545967,-33.143284,18.630219
750,6.1582284,-27.866215,44.63332
751,-7.194021,-16.61935,60.177696
752,-19.08306,-14.228621,30.552456
753,-26.523542,-9.725029,8.674281
754,-15.523437,-4.069294,9.807582
755,-2.513361,-3.5494533,18.586847
756,6.5105715,-4.5412784,16.37588
757,11.670394,-4.8287163,13.747963
758,12.698112,-4.7398825,10.995618
759,14.300705,-3.9637108,4.2332025
760,11.421242,-4.109972,-1.0513464
761,7.9740815,-3.4151561,-3.9140596
762,4.3259244,-2.179263,-2.5893333
763,2.1218355,-0.497408,-1.6357933
764,1.803291,1.0139586,-1.8418752
765,0.72053874,1.5601203,-2.3425734
766,0.62482584,1.5170496,-1.2574283
767,0.47138608,1.591227,-0.71365935
768,0.1911267,1.7374884,-0.21296121
769,-0.20398813,1.9794625,0.06011967
770,-0.02213361,-0.37537405,0.93230355
771,0.41874397,-5.506483,1.9310079
772,3.025126,-6.8575306,-3.4253256
773,4.395316,-9.068499,-3.0203404
774,3.444169,-64.1435,34.888252
775,0.7683952,-77.65906,20.881865
776,-14.016557,-77.60163,-1.2092727
777,-22.800907,-57.46962,7.941479
778,-23.898018,-46.162933,4.147061
779,-17.480467,-25.15694,-3.0705895
780,-9.251849,-14.539987,2.7454648
781,-1.3636098,-11.634203,0.7932207
782,13.194024,-10.077073,-4.3115673
783,15.210875,-9.368199,-10.283454
784,5.358128,-5.9784675,-7.4736824
785,1.4321043,-1.6067804,-6.661618
786,2.318346,0.7600203,-6.8195443
787,4.3522453,3.953242,-8.019844
788,3.7531424,7.8723865,-9.246465
789,2.6536403,11.123036,-10.391431
790,1.4560326,13.353147,-13.936696
791,-0.4746762,13.561622,-24.524937
792,-1.9217356,13.654942,-21.722044
793,-1.1048858,13.434802,-16.761124
794,0.04755735,10.44497,-10.046266
795,0.16719848,5.939285,-6.6855464
796,-0.017347964,2.9063823,-4.9752765
797,-0.9179466,0.10857433,-3.8635113
798,-1.6773686,-1.9707886,-3.2982068
799,-2.0724835,-3.5303106,-0.8787641
800,-2.8342984,-5.9210396,3.0041888
801,-7.318747,-15.713666,71.53941
802,-5.172385,-20.064117,31.69503
803,5.971588,-19.23979,0.18245272
804,8.690433,-13.512269,-13.512568
805,-3.016452,-10.254441,-11.886047
806,-5.4167523,-12.721741,-6.120242
807,-16.60619,-29.689245,10.394422
808,-24.206991,-52.973503,-26.290241
809,-15.35564,-33.517162,-14.423038
810,-2.975774,-15.15554,-4.7859445
811,3.9927237,-9.713065,-4.3905306
812,3.772285,-9.758529,-8.580363
813,2.4358935,-12.247364,-10.254741
814,0.2533401,-17.059929,-12.221641
815,2.7592237,-18.046967,-14.130815
816,7.722536,-18.81596,-13.024134
817,12.101701,-23.846571,-9.112167
818,17.206488,-27.320053,-10.693225
819,15.091233,-28.419554,-17.288143
820,7.0112696,-32.16851,-14.078172
821,7.272386,-36.044285,8.176275
822,8.965906,-30.539595,35.949467
823,-1.5023935,-16.957037,71.88697
824,-14.737694,-12.877573,43.826042
825,-19.571795,-11.986247,25.323242
826,-17.95963,-7.0731835,3.6559339
827,-5.6850476,-5.046463,16.51257
828,2.548356,-4.881358,15.990336
829,8.244769,-5.99761,14.279767
830,8.082058,-5.7006006,15.010475
831,10.625927,-4.979464,12.87847
832,12.436995,-4.8861437,1.8807586
833,11.926725,-4.8526444,-2.7975087
834,7.494919,-3.173182,-3.717549
835,4.127021,-2.30369,-2.8480573
836,1.599602,-0.89760756,-2.958127
837,0.63200426,0.4438686,-2.766402
838,0.11934203,1.2678969,-2.074278
839,-0.45553362,1.3037893,-1.5664015
840,-1.0737791,1.5409778,-0.3900301
841,-1.5816557,1.6489539,1.6483557
842,-0.21355942,-1.7455641,2.184946
843,0.33499518,-5.360521,2.8773692
844,3.4776685,-8.263613,-1.939981
845,6.7908306,-18.502201,-2.181955
846,9.68465,-64.58437,15.944873
847,4.31396,-77.606415,7.2562346
848,-5.067101,-75.819275,2.3216362
849,-24.60719,-51.567123,9.896116
850,-27.352356,-35.069508,-0.32542387
851,-18.658932,-22.775784,-2.5268207
852,-10.171889,-12.820146,3.6990047
853,-2.5588248,-12.704991,4.098905
854,11.866905,-9.250652,-10.01516
855,12.511172,-7.370193,-6.9418774
856,2.7305098,-3.4247274,-5.7224355
857,0.17437695,-0.11425728,-5.432605
858,0.99601245,1.035494,-5.686543
859,2.7855446,4.770092,-8.141878
860,3.961617,8.775378,-9.545867
861,2.7616165,11.937493,-12.401102
862,2.6488547,10.988739,-17.644974
863,1.2906287,11.1015005,-19.90619
864,-1.2987045,12.105289,-16.514364
865,-1.8762721,11.561521,-12.830016
866,-2.1684954,8.586046,-8.204391
867,-2.0820549,5.107779,-5.1786666
868,-1.864308,2.2525434,-4.124628
869,-2.137389,-1.1491531,-2.1963122
870,-2.635395,-2.545664,-0.58893347
871,-3.723232,-3.9661036,0.5799604
872,-6.2862444,-6.7689962,35.33152
873,-9.603892,-16.046867,52.780285
874,-2.7912276,-20.430517,33.939796
875,9.372986,-17.373985,-4.955835
876,13.617853,-9.025428,-22.840689
877,1.9088743,-11.313266,-6.664011
878,-3.8093736,-17.167904,-8.144271
879,-18.17289,-37.948673,-17.585154
880,-18.347567,-44.759243,-25.981268
881,-5.730511,-23.645275,-4.136592
882,-0.26650062,-11.4353,-2.1149561
883,2.524428,-8.012366,-10.34836
884,2.6679974,-8.872287,-15.635002
885,1.3528421,-13.136297,-11.16521
886,0.03798606,-17.179869,-10.240383
887,-0.4339982,-20.33959,-8.520542
888,4.5221357,-22.59363,-7.600502
889,10.625927,-25.82035,-10.04148
890,14.635999,-29.799316,-15.036199
891,15.44567,-31.74199,-14.590535
892,9.248559,-38.74638,-8.549256
893,10.685748,-40.317863,9.239884
894,7.897511,-32.163723,50.483173
895,-1.9241285,-14.707784,71.692856
896,-14.433506,-13.0355,38.970406
897,-25.584358,-10.829317,3.7564325
898,-18.70948,-6.2754765,0.06011967
899,-6.013163,-2.1433709,16.807186
900,3.1208389,-1.1491531,14.586647
901,8.812467,-3.1974092,12.754044
902,10.472787,-4.47398,14.993726
903,12.602099,-5.1257253,13.060624
904,13.534104,-4.6082773,3.5336008
905,11.533704,-4.596313,-0.7710871
906,7.586145,-2.7613173,-2.102992
907,4.158128,-1.4676976,-0.6152545
908,1.6836498,-0.4447659,0.005084748
909,0.18873389,0.48454657,0.35473597
910,-0.3717848,1.0833504,0.3260221
911,-0.9083753,1.8164514,0.95383894
912,-2.5301108,1.5768701,2.4963121
913,-2.1083758,0.84406817,0.95383894
914,0.9553344,-4.2248273,1.2125629
915,2.0093727,-7.231409,1.0136595
916,8.623434,-21.580269,0.9514461
917,13.531712,-36.15226,-1.2717853
918,16.92623,-62.042603,6.3891354
919,0.49052864,-65.98567,2.4963121
920,-14.507684,-55.613087,1.2484552
921,-24.214169,-44.10271,6.3341007
922,-25.754549,-33.926636,1.9286151
923,-23.33032,-27.07808,-1.6836498
924,-10.753943,-14.6333065,0.7477571
925,-3.3062828,-11.339586,4.4727836
926,8.000402,-10.434202,-2.4454648
927,13.064512,-8.493623,-12.887444
928,4.982156,-6.515058,-8.422137
929,0.6750751,-1.0486546,-7.746763
930,0.38285163,1.5864414,-7.981559
931,0.4761717,3.9388852,-6.71426
932,0.19591236,6.9786673,-8.903693
933,-0.5778667,10.380363,-12.547363
934,0.097806625,11.329118,-17.381464
935,-0.66400826,12.361621,-20.378176
936,-2.2211375,13.036995,-17.120346
937,-2.3192434,12.229716,-12.372389
938,-1.320539,10.545768,-9.653543
939,-0.25932217,5.697311,-6.3957157
940,-0.17048861,2.1230319,-4.9657054
941,-1.672583,-0.22911277,-3.2144582
942,-1.9456639,-1.2759727,-0.80937225
943,-2.4559333,-1.9564316,0.46031925
944,-4.0178485,-5.0249276,30.919157
945,-3.1456645,-18.073288,68.55228
946,6.079265,-27.542885,11.309377
947,17.019548,-10.556236,-38.514576
948,-2.0700908,-10.599307,-10.187741
949,-2.0724835,-10.189836,-6.687939
950,-4.681258,-16.317554,-6.465108
951,-14.72573,-40.67978,-17.688044
952,-21.998415,-53.447582,-20.665613
953,-8.375178,-25.133013,-7.236494
954,1.4249259,-14.758033,-4.8194437
955,2.3279173,-11.227124,-6.6185474
956,2.00698,-12.118151,-15.431612
957,-0.7815557,-16.650455,-10.980663
958,-0.098703936,-18.413368,-14.267205
959,5.0491548,-23.139791,-9.385248
960,10.906186,-27.849464,-10.539785
961,14.458631,-30.913176,-14.324633
962,14.882759,-36.027534,-13.79552
963,13.562818,-40.15994,5.10748
964,12.377174,-33.617664,40.82694
965,1.3794622,-18.485453,58.934326
966,-7.2900333,-13.7063875,41.12634
967,-18.062521,-11.722737,18.70918
968,-24.238096,-8.785847,4.4727836
969,-15.657435,-4.4835515,7.1270223
970,-0.9921241,-2.8642087,14.294125
971,5.784649,-3.9445682,12.85215
972,8.180163,-3.8297126,14.241482
973,9.064013,-3.973282,16.306488
974,12.051152,-4.1458645,10.981261
975,12.132807,-5.1161537,1.1333007
976,10.199706,-5.621638,-3.7079778
977,6.6708903,-3.9397824,-3.6047873
978,3.4585261,-2.248655,-2.9006991
979,1.7458632,-0.74416786,-2.778366
980,0.83090764,0.5662017,-3.2144582
981,0.44745782,1.0881361,-3.746263
982,-0.75972116,1.4285151,-3.2312078
983,-1.5382859,1.6968104,-1.3627125
984,-2.4224339,2.1445673,2.865405
985,-1.1862419,0.060717873,2.7215366
986,-1.102493,-3.7483566,3.0161529
987,0.8066803,-5.5519466,0.53210396
988,3.9113677,-8.553742,-3.2982068
989,5.7607207,-26.52713,8.868399
990,8.577671,-75.88149,10.413564
991,0.090628155,-73.83832,1.0639088
992,-18.77648,-66.364334,4.863113
993,-30.246176,-50.493942,2.5058835
994,-22.738695,-32.180473,1.3441681
995,-14.263317,-20.071295,0.00029910283
996,-3.0643084,-10.570593,3.5503507
997,6.2925253,-9.233903,-1.6860427
998,14.856438,-7.5403824,-9.727721
999,6.2757754,-5.2836514,-4.886443
1000,-0.41006997,-1.8293129,-4.8625145
1001,-0.5395815,1.2224332,-6.2398834
1002,1.0917253,3.4022946,-6.0915284
1003,1.4464613,5.716453,-5.8064833
1004,1.396212,9.61137,-7.339385
1005,0.69182485,10.057034,-11.282458
1006,1.2308081,9.158828,-19.508682
1007,-0.06759724,8.677272,-18.801903
1008,-1.3396816,9.846166,-13.685151
1009,-1.3995022,10.112068,-9.445069
1010,-0.9562318,7.5203424,-8.566006
1011,-0.46749774,3.8527436,-7.725228
1012,-1.0570294,1.0091729,-5.346463
1013,-2.3790638,-0.8282157,-1.9950159
1014,-2.8199415,-1.6067804,-0.035593238
1015,-3.3062828,-2.792424,0.82672024
1016,-5.392824,-9.839885,76.42167
1017,-2.5588248,-17.297117,52.15037
1018,0.8380861,-18.763319,6.2934227
1019,9.732507,-2.696711,-31.802408
1020,-0.84137625,-5.595317,-7.2580295
1021,-2.3479571,-5.7197433,-2.5941188
1022,-7.359425,-16.063616,-4.7859445
1023,-14.859728,-37.694733,-12.736696
1024,-25.452753,-60.897636,-20.090736
1025,-3.1289146,-30.939495,-2.2971098
1026,4.1030927,-18.957138,-6.3143597
1027,3.932903,-14.461023,-10.060922
1028,2.3327029,-15.684953,-9.677472
1029,0.526421,-16.140186,-14.245669
1030,9.78515,-17.344973,-19.209282
1031,10.331311,-26.419155,-11.39522
1032,14.760725,-30.702307,-15.584753
1033,12.79861,-34.540096,-15.726229
1034,12.631112,-36.044285,18.82643
1035,16.26252,-30.335907,45.018864
1036,8.120343,-17.790636,46.58078
1037,-1.5287145,-14.166408,25.318457
1038,-7.713862,-11.758928,6.4704914
1039,-13.66212,-10.470095,6.9329047
1040,-19.447067,-5.2070813,9.223135
1041,-10.880763,-1.1802598,15.206986
1042,1.7434704,-2.3419752,18.797716
1043,7.044769,-5.154439,16.229918
1044,11.140983,-8.323732,17.513668
1045,9.986445,-8.007581,16.617855
1046,9.835399,-6.4528446,5.725426
1047,6.759724,-6.3664036,-2.9102705
1048,4.7976093,-5.5160546,-4.069593
1049,2.4382863,-3.5327036,-3.5090744
1050,0.06669993,-1.7431713,-3.5377884
1051,-0.9059825,-0.2844468,-4.273282
1052,-1.6486548,0.846461,-4.0408792
1053,-2.3985057,1.2391831,-2.876771
1054,-4.4751763,2.8489544,7.203593
1055,-4.0848475,3.1555347,4.942375
1056,-2.5707889,2.9398818,-2.0575283
1057,0.39720857,-3.3003006,4.484748
1058,2.0380867,-5.933004,3.1049864
1059,5.0850472,-8.196614,-2.5124638
1060,8.68804,-34.865818,0.6206384
1061,8.213663,-77.55587,6.7698936
1062,0.200698,-77.65906,-0.27756742
1063,-19.087845,-64.68727,5.9769716
1064,-21.564716,-38.221752,5.198407
1065,-12.97209,-27.300909,4.376772
1066,-8.554939,-16.45873,3.0257242
1067,-3.7854455,-12.427124,2.7622147
1068,7.420741,-11.758928,-7.4880395
1069,8.9826565,-6.500701,-6.1250277
1070,1.5541383,-4.831109,-4.9055853
1071,2.0045872,-1.9851454,-6.843772
1072,1.9998015,-0.2844468,-7.672586
1073,2.7879374,4.2406797,-8.335996
1074,2.644069,8.475976,-11.016556
1075,1.7027924,11.003395,-12.777374
1076,1.2212368,11.070394,-19.07977
1077,-0.9921241,10.287044,-21.425035
1078,-2.3407788,10.895419,-18.620049
1079,-2.7649066,10.617552,-11.88844
1080,-2.4559333,8.293822,-7.804191
1081,-1.698904,5.864808,-5.576473
1082,-1.1240284,3.1914272,-2.716153
1083,-2.1708884,-0.5623133,-0.22492532
1084,-3.3230324,-1.87029,1.9477576
1085,-5.6970115,-4.5652065,30.468708
1086,-6.489933,-11.48824,59.66264
1087,-5.459823,-17.987146,45.53153
1088,4.1198425,-14.288442,-32.42275
1089,9.6173525,-6.1701922,-34.79194
1090,-1.4904294,-10.9684,-4.29721
1091,-1.5717853,-13.69203,5.6321063
1092,-6.8252273,-26.059933,-20.732613
1093,-18.570398,-45.997528,-29.972197
1094,-10.389636,-39.287754,-13.148561
1095,4.1844487,-18.169,-5.8471613
1096,4.0094733,-12.649956,-12.564114
1097,0.6966105,-13.421342,-11.042876
1098,0.13130614,-14.746069,-10.247562
1099,-1.9935204,-18.36312,-11.907583
1100,0.4953143,-20.274685,-13.213166
1101,6.754938,-23.024937,-12.64547
1102,13.890934,-28.366913,-12.295818
1103,17.376379,-30.144182,-12.477972
1104,16.176378,-35.486156,-20.9698
1105,13.550854,-41.640198,7.6106715
1106,12.08495,-35.893536,46.961838
1107,1.5876378,-18.777676,71.999435
1108,-10.775478,-14.858531,49.215874
1109,-21.634108,-10.843674,14.596218
1110,-15.683756,-6.0167527,3.559922
1111,-4.322036,-4.162614,14.61536
1112,4.831109,-3.0391839,15.017654
1113,9.044869,-3.5374892,12.746865
1114,9.425926,-3.539882,13.161122
1115,11.500205,-3.1013973,9.227921
1116,12.582957,-3.362514,0.51056856
1117,10.060623,-4.4548373,-2.8624141
1118,7.8113694,-3.4776685,-3.1809585
1119,4.1174498,-1.8990039,-2.376073
1120,2.0835502,0.10139586,-2.129313
1121,1.5517455,0.78394854,-1.9974087
1122,0.56500524,1.5266209,-2.8983064
1123,-0.014955142,1.3564314,-2.1364915
1124,-1.7826529,1.6848463,2.7095726
1125,-5.0766726,1.7063817,13.834403
1126,-4.935197,0.043968115,6.9592257
1127,-1.1910275,-0.93589276,-5.3536415
1128,0.7492526,-4.596313,-3.4803605
1129,2.0285153,-6.2324057,-3.3029926
1130,3.7244284,-7.164111,-4.5535417
1131,14.39881,-50.470013,21.962223
1132,10.59482,-77.44101,11.560923
1133,-6.1905313,-77.65906,2.7382865
1134,-20.63301,-61.899033,10.01815
1135,-23.31357,-40.50241,0.35234314
1136,-11.048559,-21.822243,0.43878385
1137,-9.417253,-14.056039,6.04427
1138,-1.3588241,-11.186147,-2.2345972
1139,14.183157,-8.117651,-13.579866
1140,7.0806613,-7.123433,-7.9887376
1141,-0.2832504,-2.1337996,-8.513364
1142,-1.0689936,-0.5766702,-9.8117695
1143,-0.26171497,1.0402796,-9.8428755
1144,-0.33589247,6.8398833,-10.386645
1145,0.7492526,11.039288,-13.222738
1146,-0.43878385,12.574582,-15.512968
1147,0.44985065,13.782061,-19.407885
1148,-2.5875385,13.250256,-19.115662
1149,-3.0595229,12.533904,-14.880665
1150,-2.0413768,10.529017,-12.820445
1151,-1.3229318,7.5921273,-7.8687973
1152,-0.82701933,3.859922,-4.1727834
1153,-1.672583,1.3588241,-1.9328024
1154,-2.9183464,-0.6891329,0.19680966
1155,-3.667898,-2.0018952,2.2160528
1156,-6.1232333,-4.299304,9.996614
1157,-8.530712,-16.080366,55.39863
1158,-3.4426737,-22.17668,53.752968
1159,7.6363945,-25.45395,3.0640094
1160,20.253448,-11.306087,-34.389347
1161,4.148556,-19.115362,-1.1494522
1162,-3.2153554,-20.509481,-16.150057
1163,-8.387142,-28.948967,-17.359928
1164,-13.709976,-34.22873,-13.831412
1165,-4.343571,-20.380268,-7.5526457
1166,3.2742786,-10.639985,-10.240383
1167,4.7018967,-8.0817585,-15.977774
1168,3.1256247,-10.1033945,-12.911372
1169,1.0749756,-15.411872,-7.1886373
1170,-1.9145572,-21.848564,-8.91805
1171,-1.0809577,-23.664417,-11.064412
1172,7.1476603,-24.25365,-12.020345
1173,18.631714,-28.132116,-12.410674
1174,14.226527,-31.703703,-11.670693
1175,6.443273,-33.699318,-13.414463
1176,7.461419,-37.42883,-17.096418
1177,5.9691954,-41.568413,11.323734
1178,-5.2920265,-23.68356,78.709206
1179,-10.562219,-12.769597,60.359848
1180,-17.952452,-10.642378,22.496422
1181,-19.138094,-8.563314,1.6363916
1182,-7.278069,-3.3290145,6.8611197
1183,-0.3047858,-1.6450655,19.648066
1184,5.933303,-3.2452657,14.313566
1185,8.285447,-4.6058846,12.305987
1186,10.266705,-5.142475,11.688042
1187,10.870295,-4.323232,5.282455
1188,9.998409,-4.160221,-0.6367899
1189,7.042376,-3.10379,-2.9820552
1190,3.85394,-1.7168503,-2.6347969
1191,2.11705,-0.83778703,-2.2298117
1192,0.6798607,0.49651068,-2.3234308
1193,0.49292147,1.0259227,-2.6395824
1194,-0.14895321,1.3782659,-2.091028
1195,-0.24735804,1.3663018,-0.54346985
1196,-0.40767714,1.4189439,0.17527425
1197,-0.41964126,1.2152548,1.0998011
1198,0.2724827,0.3385844,1.7371893
1199,0.663111,-4.423731,2.5444677
1200,2.6344976,-5.9784675,-1.6334006
1201,6.565606,-11.02822,-3.2407792
1202,4.6899323,-51.37809,18.63261
1203,4.8358946,-77.51041,14.957833
1204,-11.007881,-73.99864,1.6076777
1205,-19.595722,-51.33472,8.925827
1206,-18.541683,-33.36851,2.9395826
1207,-19.325033,-26.323442,-9.924232
1208,-12.502499,-14.257335,-1.6932211
1209,-6.7965136,-10.858031,-1.1638091
1210,4.6731825,-9.686745,-4.316353
1211,12.726826,-7.3678,-9.215059
1212,4.7162533,-5.817849,-4.8098726
1213,-0.94666046,-2.778067,-6.0026946
1214,-0.9610174,-0.701097,-5.643472
1215,1.8463618,1.2511472,-4.706981
1216,3.4417763,4.8155556,-7.7300134
1217,4.4671006,6.9499536,-8.144271
1218,3.8730826,9.966106,-9.459426
1219,3.106482,10.239187,-15.891334
1220,1.7243278,9.966106,-19.791336
1221,-0.7935198,10.916954,-13.03849
1222,-1.454537,10.679766,-11.4191475
1223,-1.6558332,8.550154,-8.796016
1224,-1.4353945,6.2554364,-5.7559347
1225,-0.75493556,3.3233316,-3.106781
1226,-1.3660027,1.6031911,-1.9926231
1227,-1.6319051,-0.55513483,-0.5985048
1228,-2.501397,-2.7110682,2.02702
1229,-8.008778,-10.759925,77.099434
1230,-5.7807603,-17.685352,42.685863
1231,-0.3598207,-19.20629,-0.44057846
1232,3.4010983,-10.139287,-22.737797
1233,-5.7616177,-15.596418,5.3733826
1234,-18.94637,-29.938099,14.344672
1235,-12.605689,-42.65356,-23.161924
1236,-12.93859,-42.198326,-16.0687
1237,-5.421538,-22.179073,-6.826723
1238,1.1183455,-12.326626,-8.5014
1239,8.285447,-7.0372915,-17.458035
1240,7.2026954,-8.438588,-18.212671
1241,2.4885356,-13.663317,-10.527822
1242,-0.54675996,-16.688742,-12.549757
1243,-1.4712868,-17.222939,-13.110275
1244,3.6574295,-22.356441,-6.6424756
1245,8.251948,-24.48366,-9.160025
1246,9.938589,-24.962824,-10.08485
1247,13.203595,-29.001608,-8.886943
1248,11.327922,-34.456047,-20.768803
1249,10.235598,-39.16572,7.179664
1250,-0.4435695,-30.38137,73.903824
1251,-6.0897336,-13.193725,64.18777
1252,-18.211174,-10.961222,30.686754
1253,-22.017557,-9.377771,6.1184473
1254,-13.753047,-4.9866424,0.36670008
1255,-2.5636103,-2.6919255,14.711074
1256,6.055337,-2.2797618,12.485748
1257,10.980364,-3.6355948,9.186943
1258,11.059627,-3.824927,9.292527
1259,11.19841,-3.891926,5.5076795
1260,9.897612,-3.525525,2.3168504
1261,9.308379,-3.170789,-0.7375876
1262,4.615755,-2.2462623,-1.3268201
1263,1.87029,-1.1300105,-1.0417751
1264,1.0438689,0.14207384,-2.0694926
1265,0.7827521,0.81266236,-2.5630121
1266,0.18873389,1.3998013,-2.9341989
1267,-0.16091733,1.550549,-1.7653049
1268,-0.7645068,1.8571295,0.25184458
1269,-2.0892332,1.8667008,4.640281
1270,-0.07477571,-1.204188,2.46042
1271,0.57936215,-4.577171,3.5072799
1272,2.167299,-6.663413,-0.3397808
1273,6.6924257,-16.971394,-2.7999015
1274,7.8831544,-46.912785,3.4546378
1275,8.5681,-77.443405,7.6588273
1276,-8.415856,-76.7462,1.3848461
1277,-21.648464,-49.9406,10.756037
1278,-22.896622,-41.02704,6.532705
1279,-22.72673,-27.19054,-5.883054
1280,-13.61875,-16.298412,-1.9328024
1281,-7.5990067,-11.658131,0.7429714
1282,0.27966115,-10.642378,1.5263218
1283,12.089736,-8.079366,-7.90469
1284,10.908579,-5.8683977,-7.5670023
1285,2.2633111,-2.3659034,-6.5682983
1286,0.2748755,-0.40648076,-5.8016977
1287,1.7027924,3.1028929,-6.1657057
1288,2.0117657,6.2554364,-6.7262244
1289,2.169991,9.199506,-8.25464
1290,1.477568,11.154142,-10.422537
1291,1.5206388,11.108679,-19.767406
1292,-0.12981063,10.919347,-18.33949
1293,-0.97537434,10.804492,-15.512968
1294,-0.9131609,9.340682,-9.138489
1295,-1.1312069,7.022037,-7.643872
1296,-0.9514461,4.080361,-6.51775
1297,-1.1479566,1.9938195,-4.148556
1298,-2.3024936,0.51086766,-1.1638091
1299,-2.5253253,-0.552742,-0.04995017
1300,-3.4139597,-1.87029,0.64217377
1301,-8.442178,-10.805388,78.709206
1302,-4.698008,-14.575879,58.6086
1303,-0.76689965,-16.784454,-11.375778
1304,11.773286,-5.0994043,-22.457539
1305,0.96729857,-6.22762,-11.589038
1306,-3.409174,-8.802596,-4.4434714
1307,-9.666406,-23.889643,-9.557831
1308,-18.532112,-51.440304,-24.35714
1309,-17.310278,-50.42694,-13.814662
1310,-0.96819586,-20.818455,-6.383752
1311,3.0705895,-15.591632,-7.3250284
1312,3.8706896,-11.025827,-11.716157
1313,1.9567307,-13.145868,-9.287143
1314,0.31345975,-13.977076,-10.84158
1315,3.9305103,-16.724634,-11.62493
1316,6.6972113,-24.605993,-8.70479
1317,11.792428,-28.630423,-7.9767733
1318,15.661324,-30.223444,-15.280565
1319,14.470595,-34.424942,-6.992127
1320,13.47189,-36.676888,12.859328
1321,14.760725,-31.859537,30.677183
1322,3.4680972,-15.114862,56.953365
1323,-5.296812,-10.002896,38.237305
1324,-13.963915,-10.769497,16.831114
1325,-23.948267,-9.693923,-0.016450657
1326,-10.619646,-2.5241287,15.15913
1327,-0.43878385,-3.633202,18.268303
1328,6.6038914,-5.1209397,12.313167
1329,10.808081,-5.111368,10.990832
1330,10.18505,-5.836992,9.306884
1331,10.601999,-5.171189,2.5348964
1332,9.442677,-5.226224,0.6206384
1333,7.65793,-4.1434717,-2.1843479
1334,3.813262,-2.4212375,-2.5459633
1335,1.3002,-0.8952148,-2.579762
1336,0.8234301,0.19950159,-2.4263222
1337,0.9553344,1.4763715,-2.9940193
1338,0.4139583,1.7614166,-2.5196424
1339,0.39960137,1.8188443,-1.2598212
1340,-0.33110684,2.516053,4.362415
1341,-0.36699918,2.4729822,4.944768
1342,0.8859426,1.0689936,0.1896312
1343,0.8572287,-3.7507496,2.6186452
1344,0.8572287,-3.7507496,2.6186452
1345,2.6632116,-5.4346986,-1.777269
1346,7.3322067,-50.32884,15.884753
1347,0.83090764,-77.512794,7.835896
1348,-4.3316073,-77.65906,11.275878
1349,-18.651752,-64.282585,11.103595
1350,-26.322245,-42.366123,5.730212
1351,-9.934701,-20.011175,3.0329027
1352,-9.1872425,-14.944673,6.710073
1353,-3.9987056,-13.322937,4.0701914
1354,14.918651,-11.040185,-12.3245325
1355,8.68804,-8.419446,-8.937193
1356,0.20309082,-4.4452662,-7.0351977
1357,-1.5287145,-0.46151567,-6.73101
1358,0.27726832,2.9856443,-6.4866433
1359,0.6870392,6.986145,-9.931411
1360,0.55752766,9.113065,-10.233205
1361,-2.4320052,10.545768,-9.41157
1362,-2.4990041,10.866705,-10.247562
1363,-2.8342984,10.392328,-19.745872
1364,-2.527718,10.749456,-19.031914
1365,-1.5311074,10.133604,-13.555939
1366,-1.090529,8.423334,-9.921839
1367,-0.5491528,5.115257,-6.25424
1368,-1.3277174,2.3434706,-4.191926
1369,-2.5516462,0.15403795,-1.9758734
1370,-2.527718,-1.1228321,-0.23688944
1371,-2.6186452,-2.0760727,0.8458628
1372,-2.7194428,-3.4247274,1.98365
1373,-0.62093747,-7.652845,73.903824
1374,-1.0351949,-15.404693,38.54628
1375,3.4417763,-17.855242,-9.636794
1376,10.4871435,-10.429417,-29.972197
1377,-2.652444,-10.223334,-5.686543
1378,-8.751151,-19.28316,16.627426
1379,-7.821838,-32.733814,-16.811373
1380,-17.183458,-55.87181,-17.977875
1381,-12.090633,-35.886356,-10.750653
1382,0.77796644,-17.361723,-8.172985
1383,3.214159,-13.033107,-9.917053
1384,3.6454654,-11.078469,-11.603395
1385,1.0869397,-13.080963,-11.866905
1386,-1.5502499,-14.221442,-11.486147
1387,4.435994,-15.45255,-10.017552
1388,6.2997036,-19.129719,-7.643872
1389,11.794821,-22.940887,-9.033205
1390,14.949758,-28.91786,-13.852947
1391,9.24138,-33.5387,-18.775581
1392,5.916553,-40.042393,5.7230334
1393,6.4408803,-39.388554,18.541384
1394,0.102592275,-24.50759,64.6765
1395,-11.834303,-13.953147,44.369812
1396,-19.044775,-12.681063,19.875683
1397,-22.820051,-7.899605,1.9214365
1398,-13.0055895,-1.9468603,12.404094
1399,-1.2963116,-0.81864446,16.953148
1400,6.349953,-2.4882364,14.469099
1401,10.429417,-3.568596,13.393526
1402,13.050156,-4.948357,14.617754
1403,14.132908,-5.1592245,9.153444
1404,12.1352005,-5.645566,-1.3651053
1405,9.634102,-5.3051867,-3.257529
1406,5.3799624,-3.7507496,-2.169991
1407,2.1939192,-1.5394822,-1.925624
1408,1.0630114,-0.47108695,-2.3976083
1409,0.14327025,0.5491528,-2.5965116
1410,-0.5706882,1.2415758,-2.6946175
1411,-0.9083753,1.524228,-2.0527427
1412,-1.5864414,1.7733806,0.30209386
1413,-0.6448657,0.81266236,2.2447667
1414,-0.65922266,-4.1554356,4.261916
1415,0.9457632,-6.6924257,1.1356934
1416,4.51735,-10.434202,-2.361716
1417,9.433105,-39.386158,-4.735695
1418,8.7622175,-75.426254,22.58974
1419,0.13609178,-71.60313,8.147262
1420,-20.395823,-54.786667,6.329315
1421,-24.863522,-43.5063,8.516355
1422,-23.761328,-29.391937,-3.758227
1423,-14.284852,-17.457735,-6.6329045
1424,-7.536793,-12.640385,-2.4861426
1425,3.7411783,-10.70489,1.1859428
1426,8.589635,-9.820743,-4.4554358
1427,13.277773,-6.919744,-5.1379886
1428,5.2959146,-3.2907293,-5.363213
1429,0.94337034,-0.74416786,-4.2661037
1430,0.7899306,1.6151553,-4.9657054
1431,1.5780666,2.9712875,-5.662615
1432,2.239383,6.250651,-5.753542
1433,2.0907288,8.159824,-7.4330044
1434,0.9912268,8.159824,-10.235598
1435,0.770788,8.497512,-18.632013
1436,-1.3707882,9.060423,-17.723936
1437,-0.73818576,10.5385895,-12.964014
1438,-0.80548394,10.806885,-10.769795
1439,-0.817448,6.497411,-6.9155564
1440,-0.37417763,3.0957143,-5.576473
1441,-0.5300102,0.36729828,-4.2134614
1442,-1.5311074,-1.3648062,-2.1125634
1443,-2.515754,-2.562414,0.35473597
1444,-2.7672994,-3.5877385,1.439881
1445,-4.434499,-13.112369,78.709206
1446,-3.5482569,-19.3693,21.272491
1447,7.0280194,-9.622138,-28.096523
1448,3.7076788,-6.2060847,-17.570795
1449,-3.830909,-8.941679,-0.22253251
1450,-16.483856,-22.375584,24.072693
1451,-8.353643,-32.091938,-19.247566
1452,-18.750158,-53.62495,-27.13102
1453,-10.289138,-38.866318,-13.285251
1454,3.8611186,-15.66581,-9.87159
1455,5.1212387,-11.950355,-14.61237
1456,3.7749767,-12.343375,-13.570295
1457,1.1159526,-17.076677,-11.136496
1458,-0.7262217,-20.842382,-11.622538
1459,4.4431725,-19.941784,-9.708579
1460,10.544571,-24.318256,-7.1862445
1461,14.4490595,-26.093431,-8.882157
1462,20.14338,-26.931818,-16.166807
1463,12.377174,-32.61148,-14.899808
1464,9.08794,-37.900814,8.492427
1465,5.1212387,-27.250362,52.739605
1466,-0.6472585,-19.031614,69.069725
1467,-12.603296,-10.216156,39.87579
1468,-16.558033,-9.564411,15.894324
1469,-16.196419,-6.9415784,1.3226327
1470,-0.5276174,-3.621238,14.025829
1471,5.399105,-3.688237,12.737294
1472,6.8339014,-4.4261236,10.334601
1473,8.343174,-4.1578283,13.908581
1474,9.231809,-4.217649,12.892827
1475,10.654641,-4.2056847,5.4981084
1476,9.607781,-4.9842496,0.2015953
1477,7.4853473,-3.731607,-2.984448
1478,4.1030927,-2.1194427,-2.5459633
1479,1.9471594,-0.7585248,-2.2752752
1480,0.3900301,0.25214368,-2.0934207
1481,-0.12502499,1.0809577,-2.3042881
1482,-0.92512506,1.2655041,-1.9375881
1483,-1.3636098,1.3372887,-0.8787641
1484,-2.9012976,2.0703897,6.425028
1485,-1.8810577,1.3686945,2.6401806
1486,0.7013961,-0.9669995,-0.5626124
1487,0.91226363,-4.9435716,1.0998011
1488,3.611966,-7.5786676,-2.1460629
1489,9.6631155,-18.396618,-2.9485557
1490,17.244774,-61.7432,10.779965
1491,13.347165,-77.59445,3.0640094
1492,-7.7620177,-72.13014,4.592425
1493,-22.621147,-52.278687,11.283056
1494,-27.486353,-38.04947,5.5387864
1495,-22.57329,-25.652554,1.3106686
1496,-9.47468,-12.029616,0.39571303
1497,-5.002196,-9.988539,0.3068795
1498,8.939586,-9.888041,-9.346964
1499,6.9248285,-5.425127,-7.2532434
1500,0.11934203,-1.4533406,-6.6305118
1501,0.054735817,1.0666007,-6.055636
1502,-0.56111693,4.1928234,-7.313064
1503,-0.0317049,7.036394,-6.666404
1504,-1.2987045,10.44497,-8.379066
1505,-0.7645068,11.4032955,-11.620145
1506,1.2738789,11.295618,-16.246069
1507,0.43788654,11.463116,-17.184954
1508,-0.56829536,11.767303,-13.689937
1509,-0.7286145,10.550553,-8.88455
1510,-0.7477571,7.604091,-7.2532434
1511,-0.12023934,4.6002016,-6.4387865
1512,-0.25214368,2.5878377,-3.8587255
1513,-1.0666007,1.4979069,-1.4129617
1514,-1.7946169,0.24496523,0.6975078
1515,-2.5492535,-0.9765707,1.8305093
1516,-3.138486,-2.1577277,2.105983
1517,-5.323133,-10.884352,61.47371
1518,-0.73579293,-14.470595,43.521854
1519,7.8903327,-16.547266,-29.567211
1520,10.942079,-7.463513,-29.129026
1521,1.9375881,-12.384053,-5.94766
1522,-3.871587,-22.768604,-10.836795
1523,-9.563215,-44.759243,-18.093029
1524,-21.658335,-60.210297,-22.234707
1525,-9.877273,-32.328827,-5.5046883
1526,1.2451651,-17.639889,-1.477568
1527,3.1974092,-12.295519,-6.8892355
1528,2.5627131,-13.095619,-9.797412
1529,-0.3167499,-12.477374,-14.411074
1530,4.65404,-13.07857,-15.824334
1531,9.6942215,-21.755245,-10.772188
1532,12.678969,-24.886253,-8.00788
1533,18.301205,-27.8375,-16.22932
1534,13.548461,-31.272398,-12.389138
1535,8.182556,-37.821854,2.7335007
1536,9.6173525,-37.203907,21.82344
1537,4.1318064,-24.145973,52.203014
1538,-14.24896,-14.2597275,46.575993
1539,-23.085953,-12.604492,19.995623
1540,-25.979773,-10.448559,6.8057857
1541,-14.6129675,-4.4859443,4.8248277
1542,0.38524446,-1.747957,19.633707
1543,3.1806595,-3.9373896,18.045471
1544,7.106982,-6.9344,14.859728
1545,8.767003,-7.394121,15.432211
1546,11.850155,-5.8417773,11.836396
1547,10.055838,-5.702994,0.3188436
1548,8.863015,-4.4859443,-4.069593
1549,4.7162533,-3.202195,-3.7797625
1550,1.7362919,-1.7312071,-3.5234313
1551,0.87158567,-0.9095717,-3.7941194
1552,-0.66161543,0.71216387,-3.758227
1553,-0.7477571,1.2080764,-3.8997028
1554,-1.5454643,1.4859428,-2.7448666
1555,-1.4186447,1.5553347,-1.2669996
1556,0.13369897,1.1961123,3.2102706
1557,0.30867413,-4.217649,5.8334026
1558,3.9975092,-8.476873,-2.1891336
1559,9.104691,-12.439089,-5.9620166
1560,10.106087,-35.368908,-2.507678
1561,9.215059,-73.4453,13.539787
1562,-4.6956153,-64.991455,9.242277
1563,-19.255642,-55.627445,3.1959138
1564,-24.183062,-43.12315,1.8879371
1565,-23.541187,-30.982567,-7.1336026
1566,-20.280668,-21.549162,-3.8973098
1567,-12.12174,-12.683455,-0.30149564
1568,-1.9624137,-10.690534,-0.148355
1569,6.9320073,-8.52473,-2.4765713
1570,12.175878,-7.858927,-5.6075797
1571,8.012366,-4.1339,-5.3847485
1572,3.2790644,-2.2103698,-4.9103713
1573,2.4741786,1.076172,-4.788337
1574,2.955435,2.774777,-5.3799624
1575,3.4537404,4.9307103,-5.4852467
1576,4.709075,8.952746,-7.897511
1577,4.9869413,10.960025,-14.621941
1578,3.3939197,10.627124,-18.667906
1579,0.6655038,10.900205,-15.551253
1580,0.08823533,11.544771,-13.718651
1581,-1.6510476,8.52144,-9.207881
1582,-0.73818576,5.7523456,-7.7682986
1583,-0.47946185,3.1459637,-6.326324
1584,-0.721436,0.23778675,-4.6325045
1585,-1.0522437,-1.230509,-2.8719854
1586,-2.0222342,-2.7230322,-0.8380861
1587,-2.9446673,-3.5997026,0.9634102
1588,-8.353643,-11.952747,67.1414
1589,-4.623831,-17.373985,51.156155
1590,2.2585254,-19.786251,2.4197419
1591,14.104194,-9.993324,-22.581964
1592,-2.1828525,-9.861421,-7.9073815
1593,-3.3469608,-12.474981,-4.189533
1594,-16.864914,-38.31298,-10.341181
1595,-21.327528,-56.185867,-24.381067
1596,-13.024732,-35.833416,-10.5015
1597,0.63918275,-11.902498,-5.2289157
1598,5.1089754,-8.139186,-6.129813
1599,5.866005,-6.4624157,-10.00798
1600,2.3015962,-10.357333,-10.290633
1601,0.5626124,-13.296617,-7.8664045
1602,0.6798607,-14.223835,-15.115162
1603,6.7405815,-21.247368,-7.3755765
1604,7.2505517,-26.563023,-6.2805614
1605,15.67568,-28.287651,-9.275179
1606,18.512072,-29.277082,-23.696123
1607,8.68804,-36.094532,-10.154242
1608,8.805288,-37.85296,11.834003
1609,7.4709907,-28.699814,41.84
1610,-4.532903,-13.3687,67.59664
1611,-11.635399,-9.78485,30.69154
1612,-19.202702,-11.507383,8.55464
1613,-20.75983,-10.022038,0.7070791
1614,-4.5305104,-2.6006992,17.681463
1615,3.880261,-2.0282164,17.911474
1616,8.39821,-4.8933225,11.652149
1617,10.908579,-5.8707905,13.036696
1618,9.452248,-6.5054865,12.509677
1619,9.643674,-5.1496534,6.743572
1620,7.219445,-5.0440702,2.0629122
1621,5.089833,-3.5446677,-0.8428718
1622,3.350849,-2.3060827,-2.1245275
1623,0.9314062,-1.2424731,-2.8118658
1624,-0.87248296,0.041575294,-2.591726
1625,-1.2867404,0.97806627,-1.7676977
1626,-1.91695,1.4261223,-1.2044871
1627,-2.149353,1.7997017,-1.3244274
1628,-2.149353,1.7997017,-1.3244274
1629,0.6942177,-3.5877385,4.2427735
1630,3.0155547,-8.845966,2.1777678
1631,7.207481,-15.969997,-0.51475596
1632,10.103694,-36.446877,-2.0117657
1633,10.422238,-73.900536,16.565212
1634,-7.43121,-62.481087,2.6425736
1635,-20.800508,-49.78746,0.5512465
1636,-21.42354,-39.821953,1.8496519
1637,-18.611076,-27.954748,-5.6937213
1638,-21.643679,-23.218754,-6.6448684
1639,-13.360325,-13.176975,0.5632106
1640,-3.045166,-10.352547,1.9190438
1641,7.995617,-8.946465,-2.6491537
1642,13.4096775,-7.97139,-5.792126
1643,5.8540406,-3.81057,-4.6707897
1644,1.1015958,-1.1204392,-4.2445683
1645,0.95772725,0.56111693,-4.3857446
1646,2.2010977,2.434398,-4.5966125
1647,1.829612,4.5616174,-3.7079778
1648,2.821437,7.488937,-4.412066
1649,4.6372905,8.135896,-18.315561
1650,3.5114672,8.820842,-19.41297
1651,1.3770695,10.490733,-14.909379
1652,-0.10109676,11.065608,-10.73151
1653,-1.265205,9.060423,-9.095418
1654,-0.6329016,6.3535423,-7.495218
1655,-0.4124628,4.441976,-5.9500527
1656,-1.0328021,1.96032,-4.536792
1657,-1.0474582,-0.36580276,-1.8131614
1658,-1.5382859,-2.263012,0.4531408
1659,-1.576571,-5.489733,13.989937
1660,-4.8993044,-17.69253,71.14191
1661,-3.7109687,-19.134506,-1.4850456
1662,10.383953,-6.311369,-25.315466
1663,-2.324029,-13.277473,7.023832
1664,-9.695119,-25.003502,-0.35653058
1665,-9.9394865,-36.039497,-25.248167
1666,-14.66561,-45.698128,-26.738298
1667,-5.598906,-30.05804,-10.44168
1668,3.4896326,-14.774782,-4.520042
1669,4.599005,-12.932609,-4.6205406
1670,5.2695937,-10.065109,-15.299708
1671,2.2489543,-14.288442,-11.469398
1672,-0.22073789,-18.808783,-9.41157
1673,2.5004997,-19.065113,-10.341181
1674,7.140482,-20.01596,-7.016055
1675,13.081263,-22.239193,-6.065207
1676,14.89233,-23.837,-7.449754
1677,12.582957,-30.489346,-10.029516
1678,8.683254,-34.741093,-25.025335
1679,5.0970116,-40.437805,1.3441681
1680,0.18634106,-33.574593,57.99305
1681,-6.099305,-21.439093,78.54649
1682,-16.124634,-12.197114,37.111485
1683,-24.37718,-10.271192,7.764111
1684,-11.4699955,-5.4346986,2.7909286
1685,-0.32392836,-3.4561331,13.228122
1686,4.982156,-2.236691,14.466706
1687,9.327521,-3.144468,11.37189
1688,9.231809,-3.1420753,12.471392
1689,10.966007,-2.7756743,8.9979105
1690,11.210374,-2.9985058,5.454738
1691,10.082158,-2.9530423,-0.2105684
1692,8.352746,-2.1242282,-2.5725834
1693,3.2407792,-1.1252248,-2.1245275
1694,1.0606186,-0.109471634,-1.966302
1695,-0.04127619,0.6643074,-2.3186452
1696,-0.75972116,1.0980065,-2.2947168
1697,-1.698904,1.34686,-1.3866407
1698,-2.6883361,1.7997017,2.771786
1699,-0.8006983,0.8967103,2.1897318
1700,0.3397808,-3.851248,3.1863425
1701,0.90508515,-6.5677,1.250848
1702,4.1174498,-12.384053,-2.1652055
1703,5.9787664,-19.754845,-1.6190436
1704,7.2987075,-72.5112,16.210775
1705,-1.3827524,-77.3788,8.398808
1706,-17.494823,-67.03014,-3.3029926
1707,-24.769901,-42.097828,4.7482576
1708,-21.715763,-32.324043,-4.3618164
1709,-17.674585,-19.989641,-2.8839495
1710,-8.993125,-12.807882,3.5383866
1711,-0.010169496,-11.780464,2.9156544
1712,12.216556,-7.48774,-7.1886373
1713,10.760224,-7.7871423,-5.535795
1714,3.7941194,-3.0176485,-4.781159
1715,2.684747,-1.1036894,-5.2145586
1716,3.2165518,0.53240305,-4.6803613
1717,4.1030927,3.8431723,-6.302396
1718,4.1294136,7.9369926,-8.017451
1719,4.8601217,10.830812,-10.916057
1720,2.9916265,10.991132,-14.401503
1721,1.3651053,11.283654,-17.563618
1722,-1.4138591,11.103893,-14.837295
1723,-2.7888348,10.296615,-11.095519
1724,-2.161317,8.485547,-8.285747
1725,-1.9624137,6.576374,-7.138388
1726,-1.4856437,4.3462634,-5.593223
1727,-1.698904,0.38165522,-2.8528428
1728,-1.957628,-1.4988043,-1.1015958
1729,-2.4678974,-2.9506495,0.20398813
1730,-3.449852,-3.7866418,1.6842481
1731,-5.7017975,-10.570593,78.03144
1732,-3.3732817,-21.702602,41.97669
1733,2.5316064,-24.352055,-6.3861446
1734,12.139986,-22.090538,-10.985449
1735,1.0893325,-25.654947,-1.1757733
1736,-8.348857,-25.923243,-20.454744
1737,-12.44507,-29.315367,-17.239988
1738,-11.407782,-22.615166,-10.875379
1739,-2.5636103,-13.141083,-5.9261246
1740,1.1303096,-7.9666038,-12.087343
1741,1.8008982,-8.160722,-20.641685
1742,2.2465613,-11.715559,-14.283955
1743,3.0203404,-14.638093,-10.824831
1744,1.8822541,-18.495024,-10.254741
1745,3.6167514,-22.452154,-6.539285
1746,9.842577,-27.125935,-13.074383
1747,17.503498,-30.563524,-15.3906355
1748,15.206089,-39.040997,-18.093029
1749,7.6890364,-42.931427,-11.900404
1750,10.580463,-42.703808,-11.129317
1751,8.814859,-44.241795,10.059127
1752,-12.210275,-30.043682,78.08169
1753,-14.636896,-13.7374935,64.27391
1754,-22.558933,-11.174183,22.32384
1755,-8.739186,-5.9114685,-7.2436724
1756,-2.5229323,-4.2801614,7.0357957
1757,4.1030927,0.38404804,11.441281
1758,7.2819576,-0.05922236,8.949755
1759,9.075976,-0.5838487,11.953943
1760,11.821441,-0.8880363,14.1314125
1761,12.408281,-2.1218355,9.314062
1762,12.413067,-3.8153558,1.4183456
1763,7.265208,-3.891926,-1.2550355
1764,3.0490541,-2.78046,-2.778366
1765,0.43070808,-1.4844474,-3.0418758
1766,-0.898804,-0.31076783,-3.03709
1767,-1.3779668,0.8536395,-3.3702908
1768,-1.8257236,1.5170496,-2.9150562
1769,-3.0092735,2.3051856,0.67836523
1770,-6.4995046,1.5122639,8.403593
1771,-5.639584,-0.5910272,3.8353956
1772,-1.7611175,-4.0477586,-0.061914288
1773,-1.4784653,-8.704491,0.16570297
1774,1.7195421,-17.33301,1.9860427
1775,8.062915,-32.24508,0.21834506
1776,9.646067,-62.430836,-0.14087744
1777,6.5440707,-77.369225,7.0286174
1778,-12.8213415,-61.74559,7.7736826
1779,-21.93381,-41.108395,-0.42622152
1780,-18.084057,-29.399117,-0.21535404
1781,-14.026128,-25.53052,-8.285747
1782,-4.0106697,-14.645271,0.3379862
1783,-1.6366907,-12.719348,3.6152558
1784,11.284851,-8.817252,-7.670193
1785,11.569896,-3.1803603,-9.337392
1786,4.802395,-1.6809579,-5.3392844
1787,0.948156,-0.24616162,-4.65404
1788,1.3313067,2.3075783,-5.6985073
1789,0.7827521,5.838487,-5.6961145
1790,2.5698915,11.427223,-7.8496547
1791,3.2647073,13.207185,-9.126525
1792,3.8347974,11.79841,-13.388142
1793,4.0405803,10.224831,-18.28924
1794,-0.046061836,9.544372,-14.502001
1795,-1.2771691,8.938389,-12.192927
1796,-1.6893328,6.727421,-9.639187
1797,-1.6630118,4.4539404,-7.387541
1798,-1.1862419,2.219044,-5.562116
1799,-1.5984055,0.18993029,-3.3029926
1800,-2.4104698,-2.1744776,-1.4416757
1801,-2.9805596,-3.3792639,0.381057
1802,-6.0729837,-8.745169,36.84319
1803,-4.377071,-16.080366,56.644394
1804,-0.26171497,-19.745274,27.94129
1805,11.392528,-14.650057,-25.16442
1806,9.880862,-4.272983,-21.959232
1807,-0.77407813,-6.8407807,-10.829617
1808,-3.8787656,-10.905888,-5.3392844
1809,-16.936697,-33.44538,-16.154842
1810,-26.985655,-59.448483,-26.251957
1811,-10.960025,-41.06054,-11.474183
1812,2.4308088,-17.90579,-3.758227
1813,5.1643095,-11.928819,-4.069593
1814,3.3604202,-11.224731,-5.293821
1815,0.14327025,-12.832109,-7.303493
1816,-1.9624137,-12.958929,-11.740086
1817,3.226123,-19.817358,-11.205888
1818,5.1906304,-24.48366,-11.414362
1819,17.66621,-29.394331,-8.784052
1820,23.738894,-33.70171,-32.89473
1821,15.191731,-37.29244,-1.2454642
1822,15.713965,-38.8065,15.422639
1823,12.899407,-26.737999,47.91986
1824,1.815255,-12.606885,51.39813
1825,-4.276572,-11.334801,37.717464
1826,-9.493823,-9.006286,14.593825
1827,-19.336998,-9.015857,4.3480577
1828,-19.672293,-7.664809,8.070692
1829,-1.0737791,-2.196013,20.95365
1830,4.802395,-3.906283,16.124334
1831,7.5957165,-5.6671014,13.997115
1832,8.505886,-5.252545,12.607782
1833,9.016156,-6.064609,5.866902
1834,9.732507,-4.8502517,-0.78065836
1835,8.223234,-3.7651064,-3.6625142
1836,4.8239303,-2.3539393,-3.4827533
1837,2.3422742,-1.0244272,-3.1331022
1838,1.2092727,0.23539393,-3.3846476
1839,1.1566306,1.4715859,-3.772584
1840,0.8356933,1.7039888,-3.094817
1841,1.0606186,1.6489539,-1.1853445
1842,0.9696914,1.8906289,0.07447661
1843,0.6008976,2.3075783,4.1276193
1844,2.210669,-1.082154,3.0185459
1845,1.9902302,-4.1482573,3.3756745
1846,3.5186458,-5.925825,-1.410569
1847,5.9380884,-10.724033,2.3383858
1848,8.5728855,-64.26105,19.837397
1849,5.8133626,-77.60163,5.0739803
1850,-6.259923,-77.65906,4.41057
1851,-24.631119,-65.322266,2.934797
1852,-24.372395,-40.461735,2.7382865
1853,-14.443077,-21.022142,-0.030807592
1854,-6.331708,-12.856038,5.6703916
1855,1.6597216,-12.889538,-5.8567324
1856,13.507783,-8.740383,-11.227423
1857,5.2743793,-4.47398,-6.908378
1858,2.0021944,-1.9301106,-6.858129
1859,1.1685947,0.34576288,-7.016055
1860,1.9543378,3.8479578,-7.2029943
1861,2.4861426,7.9369926,-11.893226
1862,1.4823537,11.465508,-9.984053
1863,-0.16570297,12.354443,-12.937693
1864,-1.0375878,11.202,-23.31746
1865,-2.134996,11.427223,-21.417856
1866,-1.8834505,11.592628,-15.671194
1867,-2.242673,9.273684,-10.520643
1868,-2.0461624,5.8193445,-6.1680984
1869,-1.6821543,2.6189444,-3.3966117
1870,-1.5239289,0.20189442,-1.9902302
1871,-1.5167505,-0.959821,-1.4751751
1872,-3.3661032,-2.8666015,1.4904294
1873,-4.334,-4.4428735,19.521246
1874,-3.588935,-12.9134655,51.232727
1875,-3.588935,-12.9134655,51.232727
1876,2.5028925,-15.51267,-3.6840496
1877,7.6866436,-9.861421,-23.612074
1878,-0.2015953,-12.470195,-2.80708
1879,-3.3493536,-19.685453,11.733505
1880,-8.588439,-35.450264,-21.631117
1881,-16.455143,-45.05386,-23.619253
1882,-8.262417,-29.667412,-7.626823
1883,0.57457656,-17.091034,-4.0504503
1884,4.76411,-10.881959,-12.224033
1885,2.7472596,-12.412767,-12.475579
1886,0.5168497,-15.766607,-12.897015
1887,-0.88205427,-16.988144,-11.787942
1888,3.8730826,-17.812172,-9.8524475
1889,7.6794653,-21.937399,-7.847262
1890,12.757932,-25.884956,-11.078769
1891,19.637896,-29.787352,-15.651752
1892,11.507383,-37.270905,-17.309679
1893,6.5129642,-42.91707,5.217849
1894,5.387141,-36.52584,44.170906
1895,1.0992029,-20.250757,64.02236
1896,-3.5865421,-13.931612,50.34409
1897,-15.760326,-13.083356,22.834108
1898,-22.082163,-8.019546,2.3168504
1899,-10.957632,-2.2007985,12.169597
1900,0.55513483,-1.6163517,16.778473
1901,5.3533425,-3.9927237,15.949658
1902,10.371989,-5.968896,17.947367
1903,11.050055,-5.4634123,16.938791
1904,12.099308,-4.4404807,8.478069
1905,11.255837,-5.0802617,-0.8117651
1906,8.350353,-4.9698925,-3.9930227
1907,4.3594236,-3.5757744,-3.0681968
1908,1.4488541,-2.2869403,-2.1269202
1909,0.33499518,-1.1204392,-2.2800608
1910,-0.48903313,0.5395815,-2.996412
1911,-1.2484552,1.2343974,-3.077768
1912,-1.672583,1.4500505,-1.2502499
1913,-3.2033913,2.0727825,4.2690945
1914,-1.8137596,2.012962,1.4255241
1915,0.22941187,-3.1468608,3.801896
1916,0.581755,-6.1917276,2.8319056
1917,4.9989057,-8.939286,-2.970091
1918,7.693822,-18.631414,-3.2934213
1919,9.952946,-63.568623,4.1590247
1920,9.090333,-77.44101,7.9486575
1921,-9.90838,-70.62835,1.006481
1922,-23.481068,-48.19683,7.26102
1923,-19.734505,-29.231619,-4.043272
1924,-19.111774,-21.335901,-3.8084764
1925,-11.484652,-13.641781,0.5392824
1926,-4.0848475,-10.752747,1.7081763
1927,-1.6941184,-10.846066,0.5033901
1928,11.481062,-6.277869,-6.6855464
1929,2.1771696,-3.4633117,-5.389534
1930,0.06669993,-1.2759727,-5.0590253
1931,0.45224348,1.1386845,-7.8017983
1932,3.0681968,4.066004,-6.2327046
1933,4.409673,5.96082,-5.883054
1934,4.7138605,7.714161,-7.5382886
1935,4.8673005,8.557332,-15.970595
1936,2.3781667,8.897711,-19.307386
1937,0.15284155,9.74806,-14.9763775
1938,-0.19441684,10.7351,-12.1663065
1939,-1.3875381,9.256933,-8.5779705
1940,-0.1369891,5.6853466,-7.602895
1941,-0.32632118,3.1316066,-6.3311095
1942,-1.061815,0.03678965,-3.312564
1943,-1.183849,-1.2352947,-1.2020943
1944,-1.1288141,-3.4055848,2.7741787
1945,-0.98973125,-6.186942,21.190838
1946,-2.175674,-17.280367,56.917473
1947,-0.096311115,-17.29951,-5.298607
1948,6.309275,-4.787739,-27.835407
1949,-3.5769708,-6.7426753,-8.335996
1950,-3.7061832,-7.846963,-2.416751
1951,-20.671295,-25.355545,46.458744
1952,-11.9515505,-35.589348,-32.79902
1953,-17.665012,-42.80939,-27.195925
1954,-3.1839497,-26.057539,-8.851051
1955,6.012266,-14.041681,-7.3923264
1956,3.3340993,-14.487345,-7.91456
1957,0.5769694,-17.292332,-8.324032
1958,-0.73340017,-20.337198,-8.034201
1959,-1.102493,-22.98396,-12.065808
1960,5.9931235,-22.627129,-11.3880415
1961,14.434703,-24.948465,-9.4019985
1962,15.876976,-27.238398,-11.129317
1963,16.775183,-28.625637,-21.707687
1964,6.6565337,-35.816666,-4.069593
1965,7.9884386,-37.34269,10.653146
1966,5.513961,-27.370302,46.633423
1967,-3.4450665,-13.790136,59.700924
1968,-16.103098,-13.521841,35.286057
1969,-25.301706,-11.493027,8.937791
1970,-16.706688,-6.902994,8.120941
1971,-1.5047864,-5.1664033,18.009579
1972,3.6478581,-4.636991,15.980765
1973,9.377771,-4.7829533,13.2353
1974,9.626924,-4.962714,11.388639
1975,11.433206,-3.7268212,7.0935225
1976,10.999805,-3.7097723,2.012663
1977,9.485747,-3.1253254,-1.9950159
1978,6.862615,-2.274976,-2.4311078
1979,3.8228333,-1.1754742,-0.7926225
1980,2.265704,0.07507481,-0.6056832
1981,1.3097713,1.0283155,-1.2382857
1982,0.15044872,1.2726825,-2.265704
1983,-0.2976073,1.1530414,-2.0021944
1984,-0.96819586,1.3588241,-0.17706887
1985,-2.1637099,1.4787644,3.6224344
1986,-1.4521443,0.6451648,0.46271208
1987,0.2748755,-4.042973,2.8989046
1988,1.925624,-5.8947186,0.4962116
1989,6.311668,-9.298509,-2.7089744
1990,10.089336,-42.811783,16.368702
1991,7.329814,-77.65906,6.8395844
1992,-4.837091,-77.65906,4.5541396
1993,-18.278173,-66.13433,2.934797
1994,-21.207886,-42.332623,6.8539414
1995,-22.25714,-28.37409,-6.180063
1996,-9.429216,-13.732708,-0.19621146
1997,-4.851448,-11.957533,3.9840498
1998,5.0754757,-11.629417,-7.7826557
1999,13.227524,-9.439984,-8.338388
2000,4.0767717,-5.1568317,-6.026623
2001,0.10737792,-1.5466608,-5.8686967
2002,0.5985048,0.465404,-7.0926256
2003,0.9696914,2.8633113,-6.244669
2004,0.12891331,6.2051873,-6.175277
2005,1.1709876,9.927522,-11.423934
2006,0.32303107,10.222438,-15.38585
2007,-0.091525465,10.703694,-20.215164
2008,-1.2221341,11.908779,-15.64218
2009,-1.6366907,11.978171,-11.39522
2010,-1.6893328,10.167104,-7.873583
2011,-0.91555375,6.727421,-5.727221
2012,-0.762114,3.0311081,-4.0959144
2013,-1.0857433,1.0809577,-2.5411777
2014,-1.4234303,-0.4423731,-0.6008976
2015,-2.216352,-1.4940187,1.1309078
2016,-2.6473591,-2.8713872,2.0413768
2017,-3.76391,-12.496516,78.709206
2018,-0.12502499,-16.247864,38.297127
2019,6.690033,-16.544872,-15.436398
2020,8.129914,-10.683355,-20.112272
2021,1.9280169,-9.47827,-5.5908303
2022,-1.8448663,-15.122041,-4.275675
2023,-8.755937,-30.070004,-14.6434765
2024,-17.930916,-45.698128,-19.618753
2025,-13.587644,-33.038002,-8.247461
2026,-1.6295122,-17.8361,0.10079765
2027,2.0835502,-12.161222,-6.108278
2028,1.0773684,-12.458231,-7.346564
2029,-0.17288144,-14.228621,-7.112067
2030,-0.85812604,-17.083857,-10.192527
2031,4.1988053,-17.356937,-13.500605
2032,9.0544405,-19.37648,-9.392427
2033,14.85883,-24.148367,-9.929018
2034,15.450456,-28.747671,-15.0170555
2035,9.049655,-32.510983,-13.424034
2036,4.2370906,-38.643486,5.486144
2037,6.4289165,-33.440594,27.28745
2038,1.3002,-24.189045,52.82814
2039,-8.966804,-13.86192,50.91179
2040,-18.81955,-13.799707,23.689543
2041,-25.773691,-10.987542,3.5814574
2042,-10.751551,-5.29083,4.8846483
2043,0.5288138,-1.340878,13.843974
2044,6.3475604,-1.3671991,15.0679035
2045,9.4019985,-2.7948167,15.307485
2046,9.6942215,-4.536493,17.906689
2047,10.2571335,-4.4165525,12.720544
2048,9.6580305,-5.089833,4.3983073
2049,8.527422,-4.9986067,0.47706902
2050,6.25424,-3.5614173,-2.9126635
2051,3.0969107,-2.4308088,-3.3053854
2052,0.1480559,-1.3336995,-2.6611178
2053,-1.4760724,-0.20279172,-2.8094728
2054,-1.442573,0.5491528,-2.716153
2055,-1.8786649,1.1961123,-2.7352953
2056,-2.5516462,1.605584,-2.5893333
2057,-1.998306,0.5515456,0.21834506
2058,-0.9586246,-4.014259,3.4426737
2059,-0.21595225,-8.172686,3.028117
2060,2.929114,-15.680167,2.3718855
2061,7.313064,-34.336407,0.65653074
2062,3.0346973,-77.65906,17.070696
2063,-3.99392,-75.58448,4.8008995
2064,-22.834408,-57.036217,2.6162524
2065,-24.997519,-36.513874,-1.8921245
2066,-15.487246,-23.808287,-2.2824538
2067,-10.962418,-17.71646,-9.382855
2068,-4.393821,-13.040285,1.8711873
2069,2.5387847,-11.516954,3.7923248
2070,14.061123,-10.697712,-8.333603
2071,7.1859455,-6.6418777,-5.274678
2072,1.9328024,-3.8321054,-3.7534413
2073,0.45224348,-1.6833507,-4.6325045
2074,3.3029926,0.18993029,-5.5669017
2075,3.6981075,4.036991,-5.9859447
2076,4.388138,9.252148,-7.557431
2077,5.2456656,12.883855,-9.660723
2078,3.6167514,11.379367,-18.708584
2079,1.0247263,11.420045,-19.137197
2080,-0.7645068,11.345868,-14.600406
2081,-1.4306089,10.397114,-10.566107
2082,-1.1144571,8.461619,-7.9337025
2083,-0.8150552,5.773881,-5.6004014
2084,-0.39571303,2.161317,-3.7223346
2085,-0.6975078,-0.6412765,-2.2417758
2086,-1.1216356,-2.2869403,-0.9290134
2087,-2.0341983,-3.9158542,1.0615159
2088,-4.2092743,-10.726426,61.320267
2089,-5.361717,-20.198114,60.42685
2090,-3.4597225,-23.752953,16.843079
2091,10.822437,-5.985646,-30.223743
2092,-2.434398,-9.962218,-10.010373
2093,-5.201099,-13.028321,-5.0159545
2094,-19.705791,-32.542088,13.007982
2095,-19.322641,-52.3409,-26.422146
2096,-13.079767,-35.359337,-17.084455
2097,-1.4066806,-15.043077,-8.388638
2098,4.9749775,-9.104691,-9.011669
2099,6.498607,-8.6757765,-10.843973
2100,4.4072804,-11.830713,-9.766006
2101,2.5387847,-15.732809,-9.938589
2102,0.30149564,-18.343977,-12.425031
2103,3.4130623,-21.635303,-8.906086
2104,5.751149,-24.141188,-6.4866433
2105,14.777474,-26.2373,-7.6630144
2106,18.57668,-28.151258,-18.95295
2107,11.109876,-35.337803,-11.268101
2108,9.380164,-38.238503,9.383454
2109,8.788539,-33.962826,35.099117
2110,3.3675988,-19.838892,60.21359
2111,-3.912265,-11.109576,45.81657
2112,-9.378967,-8.807681,17.980865
2113,-16.031313,-9.195618,4.182953
2114,-17.482859,-5.643173,10.332209
2115,-3.7157545,-0.91196454,19.123737
2116,3.0705895,-2.6078775,15.166308
2117,9.372986,-5.046463,15.618851
2118,11.167303,-5.5830536,15.983158
2119,11.251052,-5.643173,7.7162547
2120,11.46192,-5.6934223,-0.45732823
2121,8.800503,-4.9674997,-3.0873394
2122,6.201598,-3.1974092,-4.9103713
2123,2.6464617,-1.6570296,-4.2038903
2124,0.98644114,-0.65324056,-3.636193
2125,0.27008986,0.8703892,-3.906881
2126,-0.17288144,1.3253247,-3.9690945
2127,-0.831805,1.3037893,-3.1426735
2128,-2.1589243,1.4237294,-0.5602196
2129,-3.330211,1.8451654,3.4594233
2130,-2.71705,1.6944175,2.7933214
2131,-0.13220344,-2.3252254,2.9443684
2132,0.22462623,-4.6322055,2.7215366
2133,1.585245,-6.174978,-1.3507484
2134,3.51386,-19.63281,0.9921241
2135,8.501101,-77.65906,17.152052
2136,2.6943183,-77.65906,-2.7999015
2137,-13.721941,-65.05397,6.923333
2138,-20.225632,-42.574596,5.9961143
2139,-10.372886,-25.748566,4.5876393
2140,-8.799007,-15.670595,5.7134624
2141,-1.998306,-12.77199,0.66161543
2142,13.502997,-9.487841,-11.768799
2143,12.171092,-9.44477,-8.233105
2144,0.95054877,-5.563911,-8.225926
2145,-1.2053844,-2.9913275,-8.460722
2146,-1.753939,-1.0316057,-7.6678
2147,0.70618176,2.4969103,-8.338388
2148,1.3169497,5.800202,-10.391431
2149,1.3336995,8.775378,-13.553546
2150,-0.46749774,11.4032955,-14.9452715
2151,-1.8233309,11.113464,-19.35285
2152,-2.4128625,10.859527,-19.132412
2153,-2.8965118,10.509875,-15.956239
2154,-1.7730815,9.958928,-10.654941
2155,-1.7730815,7.975278,-4.7691946
2156,-1.2939188,4.7916274,-2.4239295
2157,-1.986342,1.7350955,-0.27038896
2158,-2.6907291,-0.69152576,0.8961121
2159,-2.9805596,-2.631806,2.5325036
2160,-1.8571295,-6.5294147,47.658745
2161,-4.1925244,-13.567305,55.44409
2162,-2.4296124,-18.027824,35.26931
2163,12.985549,-13.859528,-21.571297
2164,4.110271,-13.859528,-14.240884
2165,7.832905,-16.216757,7.203593
2166,-7.6181493,-26.452654,-11.268101
2167,-12.603296,-34.76771,-24.421745
2168,-16.431213,-41.86303,-16.67229
2169,-3.5075788,-22.308584,-0.7710871
2170,3.2285159,-12.683455,-3.9116669
2171,4.0310087,-9.492626,-13.812269
2172,2.033301,-11.524133,-17.525034
2173,0.1576272,-16.358232,-11.203495
2174,-1.9552352,-18.367905,-13.661222
2175,2.8860433,-21.978077,-9.31825
2176,6.4818573,-25.171297,-8.04138
2177,13.99891,-26.172396,-11.339886
2178,15.119947,-29.720352,-12.813266
2179,11.13859,-31.389944,-23.264816
2180,8.505886,-39.901215,5.052445
2181,6.948757,-33.53631,46.295734
2182,0.68464637,-17.179869,70.25806
2183,-11.000703,-11.363515,37.65525
2184,-19.804197,-10.549058,12.454642
2185,-19.459032,-6.3951178,1.5047864
2186,-10.135697,-2.7469604,11.278271
2187,2.0452652,-1.1515459,17.144873
2188,7.5382886,-3.760321,16.711174
2189,11.315957,-6.2515483,17.573788
2190,11.016556,-6.9535427,16.541285
2191,11.481062,-5.9042897,7.4192457
2192,9.562318,-5.604888,-1.329213
2193,6.9009004,-4.8358946,-4.371388
2194,3.8874395,-3.022434,-3.4683964
2195,1.4560326,-1.489233,-2.768795
2196,0.42831525,-0.5407779,-3.204887
2197,-0.6759724,0.7719844,-2.8480573
2198,-1.1120644,1.3782659,-2.5339992
2199,-1.5693926,1.6992031,-2.5052853
2200,-2.065305,2.1975086,-1.3459628
2201,-0.012562319,1.4093726,0.6999006
2202,-0.4531408,-3.970889,3.8210387
2203,0.011365907,-6.09093,3.0882368
2204,3.702893,-10.786246,-1.1757733
2205,9.792328,-31.655848,-1.1590235
2206,11.292029,-62.01628,-1.7171494
2207,3.05384,-77.53194,11.587244
2208,-17.84926,-66.63742,6.70768
2209,-27.575188,-49.660343,7.3064837
2210,-24.81058,-34.448868,-5.4613185
2211,-17.777475,-22.028326,-4.6707897
2212,-7.349854,-13.533805,-0.77587277
2213,2.5316064,-11.030613,-0.9026923
2214,12.389138,-7.003792,-8.446364
2215,9.179167,-4.248756,-4.939085
2216,2.4092734,-1.7168503,-4.0552363
2217,0.32303107,0.1061815,-5.5262237
2218,1.3097713,1.2774682,-6.220741
2219,1.8391833,2.9374888,-7.979166
2220,4.397709,8.6294155,-11.385649
2221,3.6646078,9.292826,-14.082957
2222,3.4274194,9.604192,-15.304494
2223,0.91465646,10.001999,-18.42593
2224,-1.8858434,10.3899355,-14.008481
2225,-1.5717853,10.006784,-10.899307
2226,-2.0892332,8.157432,-8.091629
2227,-1.8017955,5.895915,-6.9466634
2228,-0.48424748,3.3520455,-5.8160543
2229,-1.1144571,0.3361916,-3.5593238
2230,-1.0881361,-1.3504493,-2.4765713
2231,-2.0318055,-3.3529427,-0.6152545
2232,-2.6715865,-6.203692,2.9778678
2233,-4.4129634,-17.680567,69.29016
2234,-2.4631119,-21.472591,12.756436
2235,14.248062,-11.782857,-27.88087
2236,5.1332026,-10.90828,-10.341181
2237,-1.320539,-17.944077,0.8745767
2238,-10.485648,-30.18486,-12.360424
2239,-14.557933,-37.491344,-21.48007
2240,-11.853445,-27.99782,-10.7482605
2241,-0.8102696,-14.58545,-2.6778677
2242,4.8792644,-9.947861,-6.3598237
2243,5.24088,-10.513165,-11.675479
2244,4.512564,-13.730315,-9.191131
2245,0.770788,-17.424236,-8.426923
2246,3.2285159,-18.614664,-16.911873
2247,9.638887,-20.938395,-9.315857
2248,10.00798,-24.521946,-5.212166
2249,18.691534,-27.959534,-10.741082
2250,16.099808,-30.582666,-24.11038
2251,2.3135605,-40.964825,-9.555438
2252,4.249055,-43.11597,12.205489
2253,0.67028946,-34.86821,54.56503
2254,-4.975875,-14.451452,59.85676
2255,-12.5602255,-12.800704,25.409384
2256,-14.883656,-12.815061,12.809079
2257,-19.777876,-10.6663065,-1.5424733
2258,-4.7602215,-1.3719847,12.349058
2259,4.069593,2.1831515,20.596819
2260,10.065409,-0.29162526,17.327026
2261,11.6847515,-4.200899,17.83251
2262,10.223634,-6.5342007,14.941084
2263,9.152845,-6.0957155,10.305887
2264,3.9975092,-6.352047,-1.8801605
2265,1.7865412,-4.9363933,-3.6960137
2266,0.059521463,-3.132504,-3.717549
2267,-1.1407782,-1.2616158,-3.3870404
2268,-2.094019,-0.24107689,-3.8180475
2269,-2.405684,1.1458629,-4.3905306
2270,-3.0738797,1.7781663,-4.3857446
2271,-3.5243287,2.4634109,-2.2058833
2272,-3.3038898,2.7819555,-0.49082774
2273,0.99601245,-0.35144582,3.8907297
2274,0.102592275,-4.502694,4.959125
2275,0.75643104,-5.791528,3.952943
2276,4.2370906,-14.920745,1.3250256
2277,5.1810594,-46.24668,-0.16510476
2278,-0.37657046,-77.48647,12.284452
2279,-7.496115,-77.65906,3.3179476
2280,-23.430819,-59.163437,1.7994026
2281,-15.48246,-31.150364,0.09361918
2282,-9.431609,-22.064219,-8.245069
2283,-12.459428,-16.188044,-2.888735
2284,-0.67836523,-11.222338,4.0271206
2285,6.1773705,-10.961222,-2.4430718
2286,13.059727,-5.9617176,-7.4976106
2287,4.6205406,-5.183153,-3.8898323
2288,-0.56111693,-2.8259234,-5.6889358
2289,0.6415756,0.019740786,-5.2722855
2290,2.0045872,2.8130622,-5.3440704
2291,3.7124643,7.242177,-8.558827
2292,3.8180475,10.900205,-7.303493
2293,3.542574,11.678769,-6.0747786
2294,4.2538404,10.969596,-21.434607
2295,3.865904,11.920743,-19.997417
2296,-0.0077766734,11.300404,-14.22892
2297,-1.1240284,9.867702,-10.966306
2298,-0.4651049,6.6218376,-7.8520474
2299,0.23419751,4.104289,-5.672186
2300,-0.11066805,0.67148584,-2.4598217
2301,-0.5371887,-2.0904298,-0.77347994
2302,0.27966115,-3.3720853,4.295416
2303,-4.5448675,-9.2793665,15.856039
2304,-9.845867,-19.81975,78.709206
2305,-6.1737814,-24.797419,49.90351
2306,8.1179495,-8.635098,-48.482178
2307,4.2610188,-11.423335,-12.247962
2308,-6.595217,-17.349758,-0.32063824
2309,-16.100706,-26.713772,13.820046
2310,-11.402996,-40.583767,-23.8038
2311,-11.757732,-34.635807,-17.484356
2312,4.7018967,-12.58535,-11.850155
2313,5.6745787,-8.848359,-14.6434765
2314,5.8875403,-9.396914,-15.59911
2315,4.3354955,-13.217653,-13.373785
2316,2.8286154,-17.64946,-10.30499
2317,2.2489543,-19.970497,-11.146067
2318,4.17727,-22.02354,-7.765906
2319,4.4814577,-23.027328,-7.3345995
2320,16.130915,-25.305296,-9.397213
2321,15.177375,-28.496124,-9.814162
2322,10.321739,-33.82135,-24.12713
2323,6.8075805,-40.962433,3.0640094
2324,3.6526437,-38.123646,41.47599
2325,-4.2741795,-18.070896,71.14191
2326,-10.864013,-12.290733,44.094337
2327,-20.446072,-10.376475,6.058627
2328,-15.657435,-6.285048,-0.12891331
2329,-7.1629148,-1.5538392,13.429418
2330,1.2834502,-0.5096712,17.686249
2331,6.5608206,-2.385345,14.586647
2332,7.6196446,-4.529314,14.936298
2333,9.138489,-5.221438,14.509777
2334,9.837791,-4.6824546,5.730212
2335,9.730114,-4.787739,-0.34456646
2336,7.6794653,-4.284947,-3.8778682
2337,3.5976088,-2.385345,-3.3077781
2338,1.5158532,-1.4916258,-3.03709
2339,-0.12502499,-0.1692922,-3.0924242
2340,-0.78394854,0.95653087,-2.8671997
2341,-0.8006983,1.3085749,-2.2728825
2342,-1.3058829,1.4955142,-1.1015958
2343,-2.077269,2.0249262,2.7693932
2344,-1.7012969,2.0344975,1.8113668
2345,-0.60658056,-2.996113,4.1276193
2346,-0.5180461,-4.8789654,3.5647075
2347,2.8405795,-7.5930243,-2.2947168
2348,6.5488563,-24.69692,-0.033200413
2349,7.763214,-51.075996,-0.7686943
2350,8.664112,-77.65906,13.015161
2351,-11.72872,-72.50642,-1.6740786
2352,-22.101307,-47.401516,6.283851
2353,-20.89652,-34.49194,8.815757
2354,-16.936697,-18.698414,-4.3594236
2355,-12.617653,-11.294123,1.1763715
2356,-5.3497534,-9.502198,3.4666018
2357,5.4684973,-8.611171,-3.554538
2358,14.3772745,-6.0981083,-8.110771
2359,4.953442,-3.0152557,-5.660222
2360,0.054735817,-0.6053841,-6.120242
2361,-0.7262217,1.157827,-6.3478594
2362,0.907478,3.1004999,-6.7429743
2363,1.6501503,5.922535,-6.802795
2364,1.4871392,7.5442705,-7.219744
2365,1.7171494,8.574081,-12.463615
2366,1.1973087,8.804091,-21.511177
2367,0.020937199,10.07139,-18.047266
2368,-1.5311074,11.875279,-13.419249
2369,-2.0892332,11.992528,-10.515858
2370,-0.97537434,8.876176,-7.4042907
2371,-0.8437691,6.142675,-5.413462
2372,-1.4712868,2.161317,-1.9591235
2373,-1.1479566,-0.27008986,-0.22492532
2374,1.0271192,-4.732704,27.987051
2375,-6.707979,-13.747066,60.788464
2376,-1.9504496,-18.22912,41.38985
2377,4.936692,-11.327622,-11.109876
2378,5.8683977,-4.0740795,-25.435106
2379,-1.224527,-3.7962132,-12.9592285
2380,-2.0485554,-6.8910303,-0.42382872
2381,-13.741083,-29.574091,8.30788
2382,-27.991837,-53.5077,-39.465424
2383,-14.085949,-48.668518,-17.695223
2384,-6.7582283,-40.53591,-8.343174
2385,8.297412,-15.641882,5.282455
2386,5.31745,-12.2330065,-10.9375925
2387,2.318346,-15.692131,-20.232212
2388,0.2748755,-19.247267,-13.821841
2389,6.1414785,-18.732212,-18.500109
2390,5.521139,-25.42045,-7.289136
2391,5.4637113,-25.906492,-5.6482577
2392,7.3250284,-25.76771,-6.477072
2393,10.537393,-25.571198,-12.743875
2394,7.2505517,-28.87449,-1.3818551
2395,8.783752,-31.454552,16.653746
2396,5.8707905,-24.234509,44.91358
2397,-2.7984061,-13.529019,42.81986
2398,-14.289638,-12.946965,23.382664
2399,-20.182562,-11.3683,6.094519
2400,-19.811375,-5.7341003,5.8836517
2401,-7.8816586,-1.3767704,15.197414
2402,1.7578273,-1.6450655,15.195022
2403,9.634102,-3.4223347,15.123238
2404,13.083655,-4.553242,19.784756
2405,12.714861,-5.6001024,15.391533
2406,13.131512,-5.0392847,11.120344
2407,9.514461,-5.808278,2.812763
2408,5.8229337,-4.962714,-3.2599218
2409,3.528217,-3.0894332,-3.636193
2410,2.3422742,-2.3611178,-3.2742786
2411,0.035593238,-0.43280178,-2.3425734
2412,-0.49381876,0.40079778,-2.2537398
2413,-0.46749774,1.3492528,-1.8442681
2414,-0.52283174,1.837987,-1.3076776
2415,-0.25932217,2.338685,0.32123643
2416,0.60329044,-0.66999036,3.1719856
2417,0.7851449,-4.3088756,3.5527434
2418,3.1663027,-7.260123,-0.8213364
2419,6.7764735,-16.121044,-1.7458632
2420,7.066304,-34.906498,-2.1508484
2421,5.4206405,-66.82406,14.387743
2422,-9.156136,-62.090755,4.7865424
2423,-17.030018,-54.312588,2.6330023
2424,-22.635504,-43.671703,-2.2752752
2425,-23.596222,-37.014572,-0.96759766
2426,-22.094128,-20.46641,-1.2311072
2427,-14.538791,-13.378271,3.1480572
2428,-4.4895334,-11.279766,1.0399805
2429,3.9687955,-10.417453,2.2328026
2430,13.721044,-9.53809,-3.880261
2431,11.442777,-9.648459,-2.579762
2432,2.4670002,-6.375975,-3.1857443
2433,0.66071814,-4.651348,-3.2742786
2434,1.6187445,-2.373082,-3.3053854
2435,5.2049875,0.25692934,-5.2770715
2436,5.7990055,1.7901305,-5.36082
2437,2.835794,5.30429,-3.3412778
2438,1.6429719,6.849455,-2.3569303
2439,1.5972091,9.944571,-26.654549
2440,-1.1383854,12.766307,-19.532612
2441,-1.7706888,14.050356,-13.493426
2442,-1.3253247,12.869199,-9.581759
2443,0.6870392,7.488937,-7.4569325
2444,0.98883396,4.255037,-5.9691954
2445,0.74446696,0.38404804,-3.0203404
2446,0.38285163,-0.9933205,-0.8739785
2447,-2.1732812,-8.141579,33.98526
2448,-10.222138,-19.105791,78.3452
2449,-11.225927,-26.124538,31.254452
2450,-2.8725836,-16.45873,-33.852757
2451,-1.9648064,-14.132608,1.7898313
2452,-9.64487,-18.37269,10.114162
2453,-5.313562,-23.398516,-16.79941
2454,-6.068198,-24.509981,-23.683859
2455,-5.2896338,-24.062225,-19.925333
2456,0.08823533,-16.827526,-13.754542
2457,3.9233317,-9.296116,-15.927226
2458,8.340781,-7.7126656,-18.15285
2459,7.748857,-11.636596,-17.644974
2460,-1.4760724,-19.706987,-7.725228
2461,-2.1445673,-23.032114,-5.078168
2462,-1.6965113,-23.841785,-4.9920263
2463,6.055337,-25.70071,-12.844373
2464,11.399706,-27.023043,-13.563117
2465,12.312269,-35.450264,-14.554643
2466,6.2662044,-39.699917,-10.743475
2467,10.125229,-38.693737,-21.791435
2468,6.1342998,-42.77081,11.893824
2469,-7.9510508,-30.987352,78.709206
2470,-15.460924,-14.139788,53.18766
2471,-26.391638,-10.966007,20.050657
2472,-14.349459,-3.8775692,-8.843872
2473,-11.458032,-1.6354942,3.5144582
2474,-5.5220366,-0.72023964,15.717256
2475,5.044369,-1.5658033,11.953943
2476,8.970692,-4.0764723,15.769897
2477,11.469098,-5.0392847,20.012373
2478,13.850256,-5.465805,13.273885
2479,12.992728,-6.1100726,1.4422739
2480,9.993624,-5.866005,-3.8060834
2481,4.1150565,-3.5279179,-5.1236315
2482,1.9016958,-1.5131612,-3.6433716
2483,0.22941187,-0.0017946169,-2.6898317
2484,-0.23030917,1.8308084,-2.6084757
2485,-0.0077766734,3.234498,-2.3976083
2486,0.76600236,3.383152,-1.9543378
2487,-1.8448663,2.5998018,-0.7423732
2488,-4.9974103,-1.9229321,0.59671015
2489,-1.7395821,-7.4276204,2.2160528
2490,1.9974087,-14.961721,1.9357935
2491,3.4824543,-19.781466,2.0294127
2492,8.973084,-39.067616,-2.8695927
2493,5.1403813,-61.211395,-10.338788
2494,-8.499605,-66.67809,10.837692
2495,-23.775684,-59.824455,0.24945176
2496,-29.009983,-41.300117,-5.226523
2497,-18.987347,-25.95704,1.1691929
2498,-12.586546,-20.717957,-9.222238
2499,-5.919843,-14.575879,-0.799801
2500,3.5162528,-11.5265255,5.9099727
2501,13.081263,-10.977971,-4.5894337
2502,14.846867,-6.1342998,-9.857233
2503,6.465108,-3.226123,-7.428219
2504,0.4977071,-2.373082,-3.418147
2505,0.6966105,0.84406817,-4.56072
2506,2.6632116,1.9746768,-4.0552363
2507,3.3221352,5.3353963,-4.5008993
2508,7.681858,9.189935,-9.562616
2509,8.239984,9.932607,-17.51307
2510,4.3761735,9.917951,-18.413967
2511,1.2451651,11.034502,-15.798014
2512,-0.7645068,9.618548,-11.917154
2513,-1.672583,8.205288,-9.862019
2514,-1.9193429,6.5285172,-8.625827
2515,-1.3899308,2.8369904,-5.9644094
2516,-1.8858434,0.48454657,-3.4205399
2517,-1.4784653,-0.49980083,-2.5004997
2518,-1.9289142,-2.9769704,1.7273189
2519,-3.0236306,-7.260123,35.367413
2520,-8.0614195,-19.0364,76.071724
2521,-3.124129,-21.616161,35.036907
2522,11.6440735,-6.3161545,-31.42853
2523,-1.6630118,-12.046367,-9.037991
2524,-9.501001,-18.744177,9.26142
2525,-11.134701,-27.449265,-14.679369
2526,-12.461821,-36.348473,-30.34817
2527,-11.03181,-31.81856,-22.342382
2528,1.6477575,-14.496916,-8.99492
2529,6.4408803,-10.893924,-15.47229
2530,4.761717,-13.617554,-15.050555
2531,3.839583,-17.23251,-10.156635
2532,0.80189466,-21.340689,-6.910771
2533,0.21744776,-24.488445,-10.353146
2534,4.8119664,-24.315865,-8.9348
2535,16.252949,-26.572594,-10.137492
2536,24.174986,-27.4708,-10.058529
2537,17.254345,-30.486954,-21.87309
2538,8.318947,-39.170506,-7.749156
2539,11.109876,-41.381474,13.494024
2540,0.2318047,-29.102108,78.709206
2541,-6.4277196,-15.672988,76.36873
2542,-16.091135,-10.956436,38.01687
2543,-21.87369,-10.903495,6.135197
2544,-11.163415,-6.632306,2.2160528
2545,1.681257,-3.9828532,17.010876
2546,6.8578296,-3.851248,13.197015
2547,7.0519476,-4.1171503,10.444671
2548,8.7215395,-3.8321054,11.795718
2549,11.639288,-2.7876384,8.655139
2550,11.75175,-3.1564322,4.424927
2551,10.41506,-3.9927237,-1.750948
2552,5.6554365,-2.833102,-3.458825
2553,2.766402,-1.4437693,-3.1378877
2554,1.477568,-0.044865426,-3.0179477
2555,0.8380861,0.75284183,-3.1905298
2556,-0.060418773,1.2607185,-2.9605198
2557,-0.5276174,1.2320045,-2.2947168
2558,-0.72382885,1.39023,-1.8203398
2559,-1.576571,1.6271194,-0.7304091
2560,-1.7395821,1.7853448,-0.8883354
2561,-0.57547385,-0.3610171,1.3130615
2562,-0.40289152,-4.555635,2.8103702
2563,0.95054877,-5.686244,-0.5626124
2564,2.9315069,-7.3199434,-2.740081
2565,6.7019973,-42.878784,8.57139
2566,6.8339014,-77.40752,17.808582
2567,-10.039985,-77.65906,0.5632106
2568,-23.217558,-59.381184,10.554741
2569,-22.161127,-37.714176,2.2040887
2570,-16.170097,-25.374687,-1.9615164
2571,-8.513962,-15.043077,1.5933207
2572,-0.1058824,-7.97139,3.6774693
2573,10.554143,-9.015857,-7.919346
2574,13.517354,-6.9173512,-7.5000033
2575,4.6301117,-3.5757744,-5.710471
2576,0.24855445,0.02213361,-4.7189455
2577,-0.15373886,1.4500505,-5.9261246
2578,0.3924229,3.2682967,-6.6257257
2579,-1.3875381,7.0675006,-6.410073
2580,0.46181476,8.569296,-8.4655075
2581,1.6357933,10.385149,-9.581759
2582,2.3566313,10.270294,-17.508284
2583,-0.57547385,9.295218,-16.715363
2584,-0.8676973,9.223434,-14.3823595
2585,-0.98016,8.341978,-9.263215
2586,-0.37657046,6.6744795,-8.709874
2587,-0.6233303,3.0406795,-7.0902324
2588,-0.9729815,0.06550352,-4.1294136
2589,-0.94666046,-0.79471624,-2.5052853
2590,-1.5669997,-2.5504498,0.14177474
2591,-2.4846473,-4.84068,1.9884356
2592,-9.242277,-21.477377,78.709206
2593,1.5732809,-22.377977,25.47399
2594,13.479069,-10.5682,-28.86791
2595,3.5039897,-8.630313,-13.634902
2596,0.8333005,-7.8852477,-3.6744783
2597,0.34217364,-10.812568,-3.880261
2598,-10.202995,-24.64428,-12.839587
2599,-21.991236,-46.979782,-21.075384
2600,-11.276176,-33.457344,-10.580463
2601,1.6187445,-17.33301,-5.5908303
2602,2.6392834,-12.9134655,-4.6325045
2603,2.2226331,-12.623635,-3.6143587
2604,1.9423738,-14.219049,-6.376573
2605,1.0223335,-17.610876,-14.79901
2606,4.3929234,-19.568205,-11.452647
2607,12.858431,-25.69114,-8.729017
2608,15.253945,-29.950363,-8.913264
2609,14.43231,-32.702705,-21.513569
2610,8.65454,-34.060932,-6.8724856
2611,9.433105,-35.55555,19.130917
2612,9.445069,-29.461628,38.39553
2613,2.3901308,-14.420047,44.726643
2614,-5.459823,-11.12154,29.07459
2615,-14.081163,-10.862817,12.164512
2616,-22.237997,-9.305687,2.0006988
2617,-20.66651,-5.432306,7.7425756
2618,-6.0634127,-0.8042875,18.71636
2619,3.2213376,-4.4811587,17.741285
2620,8.484351,-6.5437717,18.840786
2621,9.991231,-6.0454664,16.366308
2622,11.469098,-5.221438,6.398707
2623,11.792428,-5.372485,2.352743
2624,9.610174,-5.5160546,-4.371388
2625,6.361917,-3.8871403,-5.4900327
2626,2.6991038,-2.5648067,-4.1775694
2627,0.6750751,-1.0268201,-3.3583267
2628,-0.11306087,-0.020937199,-3.1546376
2629,-0.6999006,1.1434702,-2.8983064
2630,-1.1910275,1.198505,-2.6778677
2631,-1.34686,1.6800606,-1.7940187
2632,-1.6271194,1.9651057,-1.1183455
2633,-0.81984085,1.3253247,0.14895321
2634,0.1265205,-0.7178468,2.7000012
2635,-0.19920248,-4.9340005,3.0978081
2636,2.3973093,-7.346265,-1.0058829
2637,5.2959146,-39.009888,18.23959
2638,3.9568315,-77.584885,9.603892
2639,-5.5579286,-77.65906,-1.2430713
2640,-15.794125,-65.528046,11.671291
2641,-22.642683,-47.617172,5.5483575
2642,-11.129915,-24.153152,2.324029
2643,-4.930411,-14.712569,3.3613176
2644,-1.0351949,-12.721741,0.18484555
2645,9.198309,-9.585947,-6.96102
2646,11.359028,-8.105687,-9.104989
2647,-0.2832504,-3.9493537,-6.795616
2648,-0.2832504,-3.9493537,-6.795616
2649,-1.1742777,0.7432705,-6.0843496
2650,-2.0006988,1.5122639,-6.539285
2651,-0.56350976,7.0722866,-7.7826557
2652,-0.6687939,8.152646,-7.4808607
2653,-0.6975078,9.158828,-11.771192
2654,-0.78634137,8.708379,-18.10978
2655,-1.7419748,8.859426,-16.173986
2656,-1.4330016,9.189935,-13.278072
2657,-1.4880366,10.133604,-9.397213
2658,-0.61854464,8.423334,-8.139485
2659,-0.25692934,4.983352,-5.375177
2660,-1.0088738,1.4069797,-1.57358
2661,-1.4306089,0.00059820566,0.45792642
2662,-1.7611175,-0.91196454,1.5957136
2663,-1.8376877,-1.4988043,1.724926
2664,-0.37657046,-14.456238,78.709206
2665,-0.695115,-19.69263,12.624533
2666,10.470394,-6.4552374,-41.865723
2667,1.0127622,-19.225433,9.27817
2668,-6.9930243,-22.131216,-2.9341989
2669,-8.375178,-26.009684,-19.194923
2670,-14.761622,-45.104107,-16.303497
2671,-8.228917,-30.012577,-10.861022
2672,0.30867413,-17.603697,-13.167703
2673,3.5162528,-11.931211,-14.418252
2674,3.9999022,-12.918251,-12.082558
2675,2.8812575,-15.503098,-12.64547
2676,4.127021,-19.168005,-14.547464
2677,4.9199424,-21.137299,-11.100305
2678,10.386346,-22.521845,-7.3417783
2679,14.897116,-25.30051,-5.6745787
2680,16.779968,-25.456343,-7.590931
2681,10.355239,-29.607592,-21.389143
2682,8.16102,-31.703703,-17.019848
2683,7.277172,-38.094933,8.645567
2684,-3.9673,-30.012577,73.49914
2685,-11.218749,-14.223835,68.66743
2686,-18.489042,-13.277473,27.785755
2687,-26.367708,-12.022438,0.9634102
2688,-11.5684,-6.2347984,4.8176494
2689,-2.079662,-3.6260235,20.043478
2690,4.249055,-2.5145576,18.790537
2691,8.992228,-3.0343983,14.521742
2692,10.214063,-3.8536408,13.288241
2693,12.0176525,-4.4285164,8.638389
2694,12.036796,-4.898108,1.1835499
2695,8.937193,-4.28734,-2.3449662
2696,5.35095,-3.4127634,-3.1426735
2697,1.6740786,-1.6187445,-3.3173494
2698,0.90029955,-0.84017986,-3.784548
2699,0.22941187,0.94695956,-4.4434714
2700,-0.16331014,1.5577276,-4.5248275
2701,-0.35264224,2.2501507,-2.7831519
2702,1.218844,1.8427725,-0.4645067
2703,0.34217364,0.35533416,3.248556
2704,0.45224348,-2.9865417,4.0677986
2705,5.0491548,-6.852745,-4.1727834
2706,7.4159555,-12.225828,-5.5740805
2707,9.413962,-30.388548,-3.3436706
2708,4.421637,-77.65906,41.07609
2709,-13.693227,-75.71878,15.662221
2710,-28.935806,-67.20512,8.820542
2711,-28.636404,-41.448475,1.5239289
2712,-23.632114,-26.965317,-10.887343
2713,-16.179668,-11.907284,-0.1265205
2714,-5.471787,-6.835995,-0.962812
2715,3.0346973,-7.0325055,2.8558338
2716,15.41217,-8.460124,-7.509575
2717,12.358031,-5.5543394,-5.47089
2718,5.252844,-3.281158,-5.2555356
2719,2.9338996,-1.0773684,-4.4458647
2720,3.731607,0.95413804,-4.3498526
2721,3.9927237,4.106682,-4.316353
2722,3.065804,7.7644105,-3.5401812
2723,4.800002,8.9312105,-8.213962
2724,4.093521,9.676275,-23.17389
2725,0.96729857,10.971989,-19.06302
2726,-1.0088738,12.155539,-13.127025
2727,-1.5358931,10.433006,-10.880164
2728,-0.62093747,7.0148587,-9.538689
2729,-0.8964112,4.549653,-7.128817
2730,-0.85812604,2.5591238,-5.3416777
2731,-1.5741782,0.7073782,-2.0045872
2732,-1.8400806,-0.2748755,-0.100199446
2733,-2.5899315,-1.6331015,1.0543375
2734,-2.5971098,-3.3338,2.4699912
2735,-4.2332025,-19.97289,67.12466
2736,-2.5707889,-11.440085,-28.566114
2737,1.4129617,-5.973682,-9.797412
2738,-1.4880366,-6.6924257,3.1456645
2739,-11.58515,-17.064714,20.735903
2740,-7.9510508,-27.413372,-18.05923
2741,-21.792334,-53.03811,-28.609186
2742,-13.788939,-39.88925,-12.108879
2743,1.3722838,-20.461624,-2.7879374
2744,4.0719857,-14.2023,-6.5464635
2745,3.1902308,-13.584054,-9.366106
2746,1.1327025,-17.208582,-9.191131
2747,6.6014986,-17.91297,-20.023739
2748,17.136797,-22.138395,-15.716658
2749,16.447067,-28.85774,-7.5263247
2750,13.512568,-29.772995,-11.641681
2751,13.800007,-30.587452,-22.797617
2752,6.786045,-36.834812,7.7569327
2753,8.604291,-33.70171,32.11198
2754,4.855336,-24.972395,49.879284
2755,-6.140282,-15.701702,50.152367
2756,-11.2088785,-15.014364,40.46024
2757,-22.695324,-12.839288,8.2145605
2758,-24.899414,-9.394521,5.9506507
2759,-10.406385,-2.2510478,17.07309
2760,-2.7385855,-2.4068804,19.923538
2761,5.171488,-4.3782673,16.60589
2762,7.7345,-5.0273204,13.894224
2763,13.373486,-4.9842496,6.47767
2764,10.843973,-5.9066825,2.2929223
2765,9.14806,-5.1400824,-1.8945173
2766,7.4183483,-4.680062,-2.524428
2767,2.7927232,-1.9612173,-2.481357
2768,1.0319048,-0.41365921,-2.4143581
2769,0.26051855,0.63798636,-3.8108692
2770,-0.13459627,1.0953146,-3.9930227
2771,-0.30957142,1.3540385,-3.717549
2772,-0.5778667,1.9220347,-1.7195421
2773,0.50009996,2.1879373,-0.77826554
2774,-0.46989053,1.7470596,1.5335002
2775,-0.39810586,-4.323232,4.5565324
2776,0.4546363,-5.8154564,1.3824533
2777,3.0562327,-9.480662,-5.7658052
2778,2.8788648,-41.44608,22.757538
2779,1.3456637,-77.61599,12.327523
2780,-2.3024936,-77.65906,7.239485
2781,-24.456142,-56.360546,2.3670998
2782,-18.881763,-36.959538,-0.9098708
2783,-9.568001,-22.102503,0.89371926
2784,-3.6631124,-14.051252,0.98016
2785,1.8822541,-11.066505,-0.31585258
2786,14.595321,-9.046964,-8.235497
2787,13.699508,-8.206185,-7.0806613
2788,1.8631115,-3.7962132,-4.436293
2789,-0.34067813,0.5204389,-4.4168515
2790,-0.05802595,2.7101707,-4.6085763
2791,-1.8786649,5.7403817,-3.825226
2792,-1.5816557,7.637591,-3.3556347
2793,-0.3574279,8.876176,-4.189533
2794,0.0738784,7.7910304,-21.02992
2795,-0.4339982,8.65813,-18.25335
2796,-1.4784653,8.986245,-14.734404
2797,-2.024627,9.522836,-9.119347
2798,-0.8222337,7.522735,-9.670294
2799,0.49292147,4.2741795,-8.570791
2800,0.38285163,1.8164514,-5.6961145
2801,-0.35264224,0.5901299,-2.658725
2802,-0.9586246,0.03918247,0.70229346
2803,-2.2881367,-0.9000004,1.5358931
2804,-2.7218359,-1.6761723,2.0581267
2805,-3.4836507,-15.855142,71.44131
2806,-1.8978075,-17.90579,41.535812
2807,12.362818,-2.169692,-32.192738
2808,2.8812575,-7.281658,-2.4454648
2809,-2.242673,-11.442478,8.810971
2810,-2.5923243,-15.270695,-11.653944
2811,-10.672288,-35.476585,-20.2032
2812,-19.181166,-49.969315,-23.219353
2813,-3.8141594,-32.408092,-8.920443
2814,3.801298,-18.926031,-7.9313097
2815,1.9016958,-15.074184,-8.005487
2816,1.6477575,-16.061224,-9.581759
2817,4.1198425,-16.801205,-14.274384
2818,6.2159553,-18.710676,-12.961621
2819,9.406784,-18.645771,-9.325428
2820,13.52214,-21.043678,-6.0364933
2821,16.178772,-24.718456,-8.400602
2822,16.681862,-25.69114,-15.35235
2823,5.2193446,-33.11218,-5.9524455
2824,6.960721,-36.29822,12.816257
2825,8.21127,-33.86203,18.867407
2826,-12.7037945,-19.134506,63.56025
2827,-16.57269,-17.354544,47.26124
2828,-26.712574,-13.133904,5.229813
2829,-19.10938,-8.692527,5.938687
2830,-7.673184,-5.1568317,15.223736
2831,-0.22552353,-3.6403806,18.574884
2832,2.8597221,-3.1902308,16.301702
2833,7.2003026,-3.7268212,13.6809635
2834,10.530214,-3.8488553,10.686645
2835,13.610674,-4.1865425,1.7419748
2836,11.3686,-3.5733814,-1.3770695
2837,7.928618,-2.481058,-2.457429
2838,5.782256,-1.9157536,-1.7653049
2839,1.6716857,-0.0017946169,-2.2728825
2840,0.89072824,0.8560323,-2.6228328
2841,0.13609178,1.4979069,-2.469393
2842,0.17916259,1.4045869,-2.400001
2843,0.054735817,1.4931214,-1.43689
2844,-0.2015953,1.2272189,-0.30149564
2845,-0.4244269,0.96849495,-0.5602196
2846,-0.5587241,0.87996054,-0.6774679
2847,-0.78394854,-2.845066,1.9262222
2848,-0.22552353,-4.577171,0.82911307
2849,1.5397813,-5.959325,-2.1556342
2850,2.8836503,-34.56163,25.404598
2851,-1.5622141,-77.65906,17.93301
2852,-2.2139592,-77.65906,3.5671003
2853,-14.014164,-69.095146,4.796114
2854,-19.95973,-41.328835,8.703294
2855,-11.292927,-23.278873,1.5335002
2856,-7.0002027,-13.366307,0.92482597
2857,1.8367904,-9.47827,-2.6802604
2858,10.3695965,-9.813564,-7.602895
2859,5.997909,-7.6313095,-6.778867
2860,-0.29282168,-4.2801614,-7.4042907
2861,-0.58504516,-0.69152576,-7.7994056
2862,0.06430711,1.9890338,-7.4808607
2863,-2.1107686,2.9015965,-7.4330044
2864,-2.6883361,5.6781683,-6.9729843
2865,-1.5335002,10.349257,-10.619048
2866,-1.7012969,10.102497,-17.127525
2867,-2.4296124,10.35165,-18.19592
2868,-1.7922242,11.28844,-14.1930275
2869,-2.1852453,10.507483,-9.864411
2870,-0.52522457,8.073683,-10.163814
2871,0.4977071,6.1450677,-9.004491
2872,0.43070808,4.8418765,-7.3250284
2873,-0.13459627,2.271686,-1.5783657
2874,-0.25214368,1.2463615,0.36430725
2875,-0.43639103,-0.011365907,1.9286151
2876,-1.3779668,-2.1984057,4.810471
2877,-5.749654,-15.318551,78.709206
2878,-1.090529,-18.198015,34.749466
2879,15.0170555,-7.3103724,-34.79194
2880,5.1065826,-14.43231,4.7769713
2881,-6.159425,-21.264118,-13.033705
2882,-10.176675,-31.430622,-17.783756
2883,-18.670897,-46.625347,-22.445574
2884,-17.305492,-38.05186,-12.432209
2885,-1.4808581,-18.681664,-4.4554358
2886,1.3097713,-10.649556,-8.252247
2887,0.18634106,-12.35534,-6.0580287
2888,-0.6999006,-13.72553,-6.6687965
2889,-0.78873414,-15.840785,-7.1455665
2890,-2.4918256,-17.184654,-10.631012
2891,7.2003026,-20.564516,-9.629616
2892,10.753046,-24.864717,-7.042376
2893,13.756935,-27.945177,-8.891729
2894,11.871691,-29.770601,-25.341787
2895,3.702893,-35.94139,-0.14087744
2896,3.8084764,-36.83003,23.157738
2897,5.4517474,-26.886353,48.544987
2898,-0.831805,-11.935998,42.635315
2899,-6.25753,-11.2343025,22.719254
2900,-10.808978,-11.610274,3.6104703
2901,-13.316956,-8.105687,3.8665023
2902,-6.142675,-1.1802598,11.314163
2903,2.71376,1.6295122,19.150059
2904,5.5977097,-1.204188,16.81915
2905,7.9501534,-3.1253254,17.19991
2906,8.879765,-6.1438713,15.650256
2907,5.5713882,-6.4815583,8.2049885
2908,4.843073,-6.467201,1.835295
2909,3.7797625,-5.6240306,-0.7040881
2910,1.340878,-3.472883,-2.8241289
2911,-0.03888337,-2.0617158,-3.3607194
2912,-1.579263,-0.7537391,-3.6167514
2913,-1.9528424,0.19950159,-3.6409788
2914,-1.9839491,1.375873,-3.5976088
2915,-2.1708884,1.8140587,-3.4420755
2916,0.08105687,0.87278205,1.2484552
2917,1.8583258,-2.4499512,4.0271206
2918,2.0955145,-7.0875406,3.4953158
2919,5.3533425,-13.34208,-1.0082756
2920,6.716354,-27.67449,-3.3436706
2921,2.7089744,-47.13083,-7.1021967
2922,-5.2489557,-68.14879,6.518348
2923,-19.126131,-53.74459,7.0453672
2924,-24.058336,-40.73242,0.82672024
2925,-20.53939,-31.560135,2.92044
2926,-12.148062,-22.32294,-1.4994025
2927,-10.593325,-13.533805,2.4269204
2928,-3.6367912,-13.636995,3.2533414
2929,5.784649,-12.64517,-1.8969102
2930,14.1472645,-9.583553,-3.5330026
2931,10.00798,-8.62792,-2.3521447
2932,-0.014955142,-5.468198,-2.5941188
2933,-1.428216,-3.1253254,-2.1795623
2934,0.9720842,-0.89760756,-3.7390845
2935,2.4430718,0.99960166,-7.320243
2936,2.888436,4.6695933,-7.222137
2937,3.3747773,6.5141606,-7.3899336
2938,0.86919284,8.3348,-8.395817
2939,0.08823533,9.323933,-21.298216
2940,-0.26650062,10.430613,-19.659431
2941,-1.1455638,10.667802,-16.545471
2942,-1.5960127,10.660624,-9.8835535
2943,-0.81266236,8.634201,-6.146563
2944,-0.29282168,5.3593245,-4.234997
2945,-0.20877378,2.4514468,-3.3053854
2946,0.21984059,-0.72741807,-1.3411771
2947,0.7612167,-2.8402805,3.7683966
2948,-0.3717848,-7.640881,30.27459
2949,-5.2920265,-17.01925,60.08916
2950,-3.4187453,-21.556341,28.540392
2951,8.359924,-14.266906,-16.18595
2952,-1.6390835,-16.370197,0.58713883
2953,-8.154739,-21.748066,8.420642
2954,-13.638192,-32.956646,-20.078773
2955,-16.689938,-38.856747,-24.244677
2956,-11.156237,-30.894032,-15.342779
2957,0.34456646,-10.458131,-5.581259
2958,2.5698915,-7.5379896,-9.16481
2959,2.6249263,-8.757133,-12.245569
2960,2.140978,-12.4319105,-11.9051895
2961,0.87158567,-16.566708,-10.252348
2962,-2.0820549,-20.047367,-9.097811
2963,0.8979067,-22.409082,-6.6831536
2964,2.778366,-23.161327,-6.795616
2965,10.671391,-23.994926,-8.73141
2966,16.66272,-27.399015,-9.636794
2967,14.307883,-29.310581,-10.199706
2968,5.9548383,-33.643982,-11.2393875
2969,6.129514,-35.12215,9.148658
2970,3.6981075,-28.160831,46.120758
2971,-2.1445673,-13.395021,65.33991
2972,-8.866305,-8.45773,33.3386
2973,-15.343677,-9.224331,13.06541
2974,-15.21895,-6.385546,0.92243314
2975,-4.6357946,-1.4150555,12.516855
2976,0.770788,-1.6977077,13.977973
2977,4.7306104,-4.1386857,12.277274
2978,6.021837,-4.8454657,14.754145
2979,6.943971,-5.358128,14.936298
2980,8.429316,-4.3686957,8.430213
2981,9.557532,-4.512265,3.49053
2982,8.129914,-4.2104707,-2.1245275
2983,5.981159,-3.4055848,-3.2766714
2984,2.876472,-2.507379,-2.728117
2985,0.74207413,-1.2927225,-2.7616165
2986,-0.33110684,0.055932228,-2.864807
2987,-0.57547385,1.0211371,-2.5941188
2988,-0.6089734,1.279861,-2.3641088
2989,-1.8041883,1.675275,0.09601201
2990,-2.3599212,1.9268204,2.0509481
2991,0.58654064,-0.7082755,1.5358931
2992,-0.06759724,-4.430909,3.112165
2993,1.1063814,-6.9702926,1.3848461
2994,10.077373,-19.280767,-1.4970096
2995,12.202199,-41.237904,-2.0814567
2996,8.695218,-77.50562,1.9238294
2997,-5.7448683,-73.36633,5.2776694
2998,-18.714266,-60.540806,3.0690942
2999,-20.654547,-48.814777,6.0323057
3000,-20.680866,-38.983566,4.1108694
