,ax,ay,az
501,-0.29042885,1.3878372,-3.3029926
502,-0.4435695,1.7542381,-3.0900314
503,-0.6448657,2.1445673,-1.4416757
504,0.51445687,1.9938195,-0.78783685
505,-1.0689936,2.039283,0.48424748
506,-1.820938,2.216651,0.5632106
507,-1.7611175,-4.330411,4.4751763
508,1.4656038,-6.404988,0.36430725
509,3.0586255,-6.747461,-5.792126
510,5.3700924,-23.06083,-0.040378883
511,-4.374678,-77.65906,31.486855
512,-7.6396847,-77.65906,7.713862
513,-15.657435,-70.71449,12.626925
514,-22.506292,-49.89035,10.643574
515,-19.971695,-32.834312,3.9098723
516,-8.365607,-19.75006,-1.2933207
517,-1.361217,-14.4490595,4.182953
518,13.627424,-10.316655,-8.729017
519,13.2610235,-8.1942215,-12.092129
520,1.3576277,-4.100401,-6.350252
521,-1.4593227,-1.556232,-6.189634
522,-0.90358967,2.1927228,-9.006884
523,1.422533,5.148756,-10.060922
524,4.668397,9.331111,-13.802698
525,3.3891342,13.005888,-13.654044
526,2.3111675,13.252648,-13.340285
527,-0.6855437,13.611871,-15.695122
528,0.030807592,12.713665,-24.294926
529,0.56500524,11.547164,-22.054945
530,1.0606186,9.541979,-15.052948
531,1.8750757,6.5309105,-10.218848
532,0.090628155,2.4418755,-5.662615
533,-0.26650062,-0.6556334,-2.80708
534,-1.1240284,-2.7732813,0.03379862
535,-1.8690935,-4.258626,6.1734824
536,-3.6583266,-7.382157,18.294624
537,-7.66122,-15.162719,44.834618
538,-7.769196,-21.35026,40.620857
539,0.92662054,-23.427229,21.878475
540,18.30599,-10.642378,-25.724937
541,0.4546363,-7.2433734,-18.354147
542,0.6966105,-3.6260235,-9.457033
543,-3.5745778,-7.990532,-4.1632123
544,-19.717756,-28.165617,-10.345967
545,-22.403101,-47.58337,-27.188745
546,-14.038093,-41.245083,-14.506786
547,1.8463618,-16.451553,-7.3178496
548,2.0045872,-14.808282,-9.253643
549,-0.6041877,-15.720845,-9.643972
550,-2.8175488,-18.130716,-5.770591
551,-3.7686956,-19.56342,-8.151449
552,2.0380867,-25.104,-9.940982
553,7.0758758,-28.220652,-10.377073
554,16.748861,-33.306297,-24.282963
555,17.330915,-37.85296,-8.776874
556,14.451452,-36.439697,18.630219
557,13.96541,-26.563023,45.107697
558,2.5220351,-14.434703,49.939404
559,-4.2188454,-13.574483,32.79244
560,-12.018849,-12.2330065,5.747261
561,-16.951056,-10.053145,9.49143
562,-15.97598,-3.8703907,10.142876
563,-5.469394,-1.5876378,16.033407
564,1.2092727,-3.077469,17.973688
565,6.673283,-5.8947186,18.134306
566,9.210274,-6.2228346,19.044476
567,9.123833,-6.0861444,11.156237
568,10.214063,-5.8154564,1.4712868
569,7.583752,-4.9292145,-4.4192443
570,6.1151576,-3.4247274,-4.469793
571,3.2333016,-1.8364913,-2.618047
572,1.178166,-0.7106683,-1.925624
573,0.32303107,0.32183465,-2.2585254
574,0.26769704,1.1745768,-3.1043882
575,-0.050847482,1.5529419,-3.2790644
576,-0.053240303,1.7877376,-1.8346968
577,-0.4651049,1.8714864,-0.12891331
578,-1.3301103,2.149353,5.078766
579,-0.88205427,-0.25812575,1.3800604
580,0.025722843,-4.9698925,2.077269
581,1.6501503,-5.7245293,-1.3794622
582,8.644969,-11.097612,-0.9314062
583,8.589635,-50.932426,16.94597
584,0.18155542,-77.65906,9.764511
585,-12.516855,-77.65906,6.3604217
586,-23.069202,-71.98657,2.283351
587,-20.074884,-42.940998,8.973982
588,-9.103494,-19.630419,7.0022964
589,-5.9916277,-14.896816,5.577071
590,6.5775704,-10.163514,-2.102992
591,11.605788,-11.068898,-11.109876
592,4.6636114,-7.5140615,-7.880761
593,-0.07716853,-3.3003006,-8.307282
594,0.13130614,0.3074777,-8.853444
595,0.48095736,4.566403,-9.665508
596,0.37567315,9.218648,-10.465608
597,-1.1383854,11.633306,-14.128421
598,-0.7429714,13.09203,-14.145171
599,-0.20398813,13.559229,-21.247667
600,-3.5482569,12.934104,-22.771297
601,-3.6655052,13.118351,-18.881165
602,-0.8461619,11.420045,-11.562717
603,0.581755,8.413763,-10.805688
604,0.64875406,4.327121,-8.324032
605,-1.061815,1.6127625,-5.47089
606,-2.1083758,-0.47826543,-2.2704897
607,-3.0978081,-2.8905299,1.2699906
608,-3.6080775,-4.816752,7.3713894
609,-2.7792635,-12.213864,58.527245
610,-5.313562,-16.461124,37.616966
611,1.3432708,-23.353052,8.125727
612,22.188944,-15.644275,-20.107487
613,-0.37657046,-11.624632,-19.791336
614,2.059622,-5.4849477,-6.5922265
615,-4.863412,-11.52174,-7.813762
616,-14.72573,-29.344082,-19.230816
617,-19.96691,-43.211685,-25.454248
618,-12.037992,-41.88935,-11.42154
619,2.7903304,-21.927826,-5.8854465
620,0.47138608,-18.068502,-11.991631
621,-0.8533404,-18.269798,-13.088739
622,-4.3555355,-19.711773,-10.393824
623,-0.1274178,-19.936998,-14.140386
624,4.6085763,-25.966612,-9.440284
625,11.476276,-30.24498,-14.056337
626,16.97887,-35.517265,-12.106486
627,12.432209,-34.329227,12.32513
628,10.949257,-28.963324,30.001509
629,4.5894337,-22.564917,41.214874
630,-6.2144594,-16.34627,40.544285
631,-18.397816,-15.594026,31.328629
632,-24.61676,-12.094223,13.395919
633,-21.037697,-5.985646,10.382458
634,-9.304491,-2.7302105,12.528819
635,2.5220351,-2.2606192,18.057735
636,7.097411,-4.4261236,16.318453
637,11.991331,-5.499305,13.220943
638,14.729319,-4.802395,9.27817
639,12.477673,-4.883751,-0.38524446
640,7.9166536,-5.0826545,-4.1054854
641,5.7487564,-3.7794633,-4.8792644
642,2.5220351,-1.4533406,-2.2489543
643,1.2403795,-0.08075777,-1.6669
644,0.5985048,0.7073782,-2.440679
645,0.63200426,1.6513467,-3.2336006
646,0.3804588,1.8834505,-3.1187453
647,-0.25932217,1.9842482,-0.88354975
648,-0.6305088,2.0321047,0.25902304
649,-1.6510476,1.0737791,5.418846
650,-0.49860442,-4.941179,4.575675
651,1.815255,-6.1701922,0.4531408
652,6.2494545,-9.140582,-2.2034905
653,5.9285173,-32.333614,14.344672
654,1.0845468,-77.65906,10.470992
655,-5.723333,-77.65906,6.4202423
656,-24.221348,-68.75267,13.383954
657,-32.1051,-50.036613,-0.33020952
658,-20.994625,-26.574987,4.21406
659,-6.6071815,-17.766708,3.327519
660,3.8180475,-13.811671,1.8783658
661,17.033907,-10.596914,-8.968299
662,12.609577,-9.066106,-8.750552
663,2.71376,-4.833502,-8.745767
664,1.6115661,-2.1361923,-8.350353
665,6.3882384,2.597409,-10.04148
666,8.685647,5.5558352,-12.1352005
667,6.3403816,10.464412,-13.246666
668,1.9064814,13.578371,-14.954843
669,-3.9218364,14.095819,-11.268101
670,-3.897908,13.5329075,-18.42593
671,-2.9662027,11.839387,-24.582365
672,-1.1455638,10.600802,-18.600607
673,0.23659034,8.286644,-13.977374
674,1.4656038,5.325825,-8.975478
675,1.0438689,2.1397817,-4.2828536
676,-0.2111666,-0.30358937,-2.1364915
677,-1.3779668,-2.3901308,-1.274178
678,-3.6439698,-3.1998022,0.86261255
679,-2.2187448,-5.4586267,32.720356
680,-2.3383858,-14.084752,55.163834
681,-5.0165524,-22.030718,38.481674
682,10.28824,-20.21965,-5.8184476
683,17.503498,-10.716854,-19.843977
684,-1.7012969,-7.858927,-21.02992
685,-2.405684,-6.047859,-2.0551355
686,-24.702902,-26.186752,48.574
687,-19.15963,-36.08496,-31.090841
688,-17.281563,-38.214573,-21.104097
689,-5.198706,-27.679276,-8.077271
690,6.201598,-15.352051,-10.147063
691,3.8970108,-14.710176,-15.484255
692,0.36370903,-17.747566,-20.299212
693,-0.47946185,-21.644875,-15.920047
694,-1.4521443,-25.911278,-15.814763
695,4.011866,-27.564419,-10.415359
696,10.314561,-28.783564,-10.848759
697,16.634007,-30.175287,-10.417751
698,14.097015,-34.657345,-15.996917
699,11.988938,-38.039898,10.07827
700,11.790035,-32.213974,49.75486
701,1.178166,-21.76003,72.78518
702,-16.843378,-14.058432,38.757145
703,-21.476181,-10.826924,15.046368
704,-11.249856,-6.6011996,5.8190455
705,-4.9064827,-4.38066,10.703395
706,3.1830523,-3.7193437,14.871692
707,7.6292157,-4.9842496,13.163516
708,8.59472,-4.775775,15.290735
709,9.24138,-4.7685966,10.301102
710,10.537393,-4.217649,1.4736797
711,9.991231,-4.3040895,-3.1809585
712,6.014659,-3.8991046,-2.7113671
713,3.4369907,-2.4308088,-1.6573287
714,2.1577277,-1.2233306,-1.7868403
715,1.1685947,0.7815557,-2.9102705
716,1.1685947,0.7815557,-2.9102705
717,-0.03888337,1.7925233,-3.8850467
718,-0.5922236,1.8523438,-1.4297116
719,-2.1732812,2.2381866,3.8258243
720,-3.0882368,1.933999,5.3829536
721,-2.2259233,0.80787677,-0.5769694
722,-1.6845472,-4.339982,1.8855443
723,-0.93230355,-4.9722853,0.99930257
724,1.8918254,-6.8479595,-4.1847477
725,2.9123642,-12.78874,-5.0255256
726,1.7027924,-73.55058,31.83172
727,0.90029955,-77.65906,6.9305115
728,-19.753649,-77.56783,9.742677
729,-29.345278,-62.243896,7.2059855
730,-13.053446,-33.299118,7.8741813
731,-1.2412767,-18.672092,6.3676
732,1.7745771,-13.701602,3.2557342
733,13.709079,-8.690134,-7.54786
734,13.339986,-8.328518,-10.5685
735,1.8750757,-4.112365,-9.102596
736,-1.5646069,-0.023330022,-9.1002035
737,-1.7778672,4.0683966,-8.697611
738,0.70618176,8.682058,-9.102596
739,0.9290134,12.407084,-12.051452
740,-1.4880366,13.357932,-10.709975
741,-1.320539,13.147364,-12.391531
742,-1.8858434,12.380763,-20.61297
743,-1.9935204,11.4032955,-21.21656
744,-1.006481,11.38176,-17.417356
745,0.023330022,9.597013,-13.493426
746,0.7899306,5.4673004,-10.11835
747,0.04516453,1.4261223,-7.346564
748,-0.41006997,-1.4054842,-6.1034923
749,-1.4856437,-3.891926,-2.6156542
750,-4.036991,-5.2238307,0.27098715
751,-5.340182,-7.681559,1.5693926
752,-3.1480572,-16.274185,72.79954
753,-3.519543,-22.183859,25.071697
754,12.010474,-19.31666,1.2939188
755,22.54368,-13.727922,-0.2321038
756,4.9175496,-9.111869,-9.919446
757,-0.10348958,-5.154439,-4.0217366
758,-9.378967,-16.204794,-1.6046867
759,-16.53889,-34.17818,-12.111272
760,-14.493327,-38.566917,-24.16063
761,-5.023731,-22.037897,-5.942874
762,0.7540382,-12.654741,-10.609476
763,2.617748,-12.477374,-12.350853
764,1.4464613,-14.899209,-9.758828
765,-1.0136595,-18.868603,-8.110771
766,0.18873389,-22.294228,-10.458429
767,5.9261246,-24.129223,-10.640583
768,13.438391,-26.567808,-11.2393875
769,21.005693,-30.570702,-14.592928
770,12.805789,-34.45844,-18.452251
771,5.7655063,-37.294834,-4.551149
772,5.0395837,-36.48995,27.409485
773,0.8234301,-26.479275,59.734425
774,-9.237492,-17.49602,61.1432
775,-21.056839,-14.805889,26.1377
776,-29.623144,-11.754143,6.611967
777,-18.70948,-3.2883365,7.361818
778,-6.8395844,1.7063817,15.487246
779,-0.70229346,0.04875376,17.128124
780,7.0232334,-2.9793632,15.88236
781,10.975578,-4.8095737,15.599709
782,14.231313,-3.851248,12.09512
783,12.273984,-4.433302,1.3848461
784,10.053444,-4.2296133,-3.1235309
785,5.9237313,-3.0942187,-2.9485557
786,2.5579274,-1.6019948,-3.1426735
787,0.6152545,-0.21475583,-3.106781
788,-0.081954174,0.8847462,-3.121138
789,-0.38135612,1.5888343,-3.4660037
790,-1.1288141,1.6657037,-2.8576283
791,-1.495215,1.7039888,-1.547259
792,-1.2843475,1.8212371,-0.29910284
793,-1.9360926,-0.9454641,3.3323047
794,-0.817448,-5.973682,3.789932
795,3.554538,-7.995318,-3.3750763
796,6.960721,-10.390832,-5.3129635
797,4.569992,-54.3078,-2.85045
798,4.1007,-77.51041,10.705788
799,-15.235999,-72.36255,5.785546
800,-24.551855,-58.35855,7.809575
801,-26.1042,-38.118862,3.5048869
802,-18.924835,-26.893532,-3.1977084
803,-7.4048886,-15.330516,3.0690942
804,-1.6247265,-11.7685,4.6354957
805,13.548461,-8.908179,-7.725228
806,17.831614,-6.788139,-9.967302
807,2.7113671,-4.36391,-6.802795
808,1.0845468,-1.0510473,-5.8974104
809,2.672783,1.1602199,-5.8543396
810,5.401498,3.383152,-6.42443
811,5.6120663,7.225427,-8.668898
812,7.2003026,11.309976,-12.252748
813,4.182056,11.482259,-16.246069
814,2.2154546,10.897812,-20.32314
815,-1.1455638,11.003395,-17.091633
816,-2.0461624,10.447363,-13.210773
817,-1.3779668,8.650951,-11.22503
818,-0.39332023,5.1296134,-7.265208
819,-0.6687939,2.6907291,-5.3512487
820,-1.5215361,-0.09032906,-4.1703906
821,-2.3024936,-1.7934206,-2.7376883
822,-3.3613176,-3.501597,1.4207385
823,-5.433502,-6.5054865,53.93512
824,-7.201499,-15.926927,63.03323
825,-3.6870406,-22.368404,32.466415
826,7.5550385,-17.132011,-18.972092
827,8.683254,-6.285048,-31.907692
828,-1.820938,-9.655638,-3.7677984
829,-9.716655,-17.273188,14.984155
830,-16.510178,-28.52484,-15.481862
831,-16.256239,-38.135612,-34.68905
832,-10.701301,-30.125038,-16.897516
833,4.2131624,-13.438092,-14.418252
834,4.9677987,-12.249757,-16.624434
835,2.9650064,-16.734205,-12.341282
836,1.3698909,-20.48316,-7.5000033
837,-1.931307,-26.196323,-11.146067
838,-1.2269198,-29.250761,-10.182956
839,9.624531,-28.3379,-12.310175
840,20.43321,-31.492836,-9.706186
841,21.832113,-34.497025,-26.774189
842,11.3016,-38.787357,-3.2312078
843,13.438391,-38.39673,21.748962
844,9.856934,-30.970602,53.846287
845,-4.686044,-14.863317,59.212193
846,-13.290634,-11.114362,35.003407
847,-22.38635,-10.237692,13.997115
848,-11.33839,-5.0754757,7.455138
849,-4.41057,-3.5757744,9.838689
850,4.3522453,-1.7240287,13.110873
851,8.814859,-1.0292128,11.9922285
852,9.701401,-1.000499,10.7177515
853,12.72204,-2.4068804,6.020342
854,11.402099,-3.5733814,1.3968102
855,8.125129,-4.2200418,-2.0479572
856,3.757928,-2.9315069,-1.547259
857,1.8128623,-1.7814565,-1.410569
858,0.49052864,-0.349053,-1.3794622
859,0.26769704,0.80787677,-1.7267207
860,0.17676978,1.5337993,-2.1317058
861,0.016151553,1.8068802,-1.9950159
862,-0.98016,2.1661026,2.077269
863,-1.9480567,2.8058836,9.603892
864,-1.0423734,1.3492528,2.7478578
865,0.36610186,-3.4151561,-0.36370903
866,1.6573287,-4.248756,-0.23688944
867,5.2193446,-8.462517,-3.2216365
868,8.170592,-19.261623,-0.35653058
869,13.021441,-70.048386,13.398312
870,0.8452646,-77.64231,3.2748768
871,-13.745869,-74.240616,0.49381876
872,-28.19074,-49.03761,8.513962
873,-25.241886,-33.081074,2.7454648
874,-17.818153,-22.052254,5.1457653
875,-8.578867,-11.801999,7.958229
876,-2.2809582,-11.548061,2.8845477
877,15.87219,-9.883255,-11.042876
878,9.253345,-8.757133,-7.3609204
879,0.6942177,-3.2356944,-7.126424
880,0.45942193,-0.068793654,-5.446962
881,2.239383,3.0693932,-6.963413
882,5.0132627,7.984849,-8.412566
883,4.642076,9.762417,-12.940085
884,3.1040893,11.542378,-12.142379
885,1.4344971,11.896815,-15.20878
886,0.10737792,11.844173,-21.801006
887,-1.0256236,12.157932,-19.995024
888,-1.7754744,10.993525,-13.299607
889,-1.9336998,8.96471,-10.27149
890,-0.8437691,5.1846485,-6.031409
891,-1.6007984,1.2272189,-4.182355
892,-2.527718,-1.3480564,-2.469393
893,-3.2871401,-2.2510478,0.2973082
894,-4.0010986,-2.9650064,1.8113668
895,-4.6525445,-8.005188,65.52924
896,-7.630113,-18.027824,45.301517
897,-1.9002002,-24.414268,26.14009
898,13.426427,-17.58934,-10.269097
899,4.4001017,-18.387047,-11.294422
900,-1.8547367,-24.03321,8.144869
901,-12.378072,-34.757843,-27.317959
902,-18.177675,-42.40919,-29.656046
903,-8.420642,-24.011677,-12.686148
904,0.020937199,-10.10818,-10.322039
905,0.44506502,-6.4289165,-13.90559
906,1.2762718,-8.826823,-15.211174
907,0.70378894,-13.0666065,-9.437891
908,-0.10348958,-18.12593,-4.922335
909,-2.3024936,-20.909681,-3.9332023
910,4.2801614,-21.783958,-8.700004
911,10.177871,-23.978176,-11.962916
912,18.669998,-27.62424,-15.553646
913,13.687544,-33.912277,-15.395421
914,9.526425,-35.093437,-23.221746
915,7.07109,-39.882072,-2.4047868
916,1.843969,-36.863525,43.205402
917,-8.303393,-21.635303,78.709206
918,-19.95016,-14.434703,49.52006
919,-27.536604,-12.690634,23.818754
920,-15.940087,-4.026223,2.2351954
921,-3.900301,-2.2031915,8.454142
922,5.034798,0.35294133,13.875081
923,11.045269,-0.52163535,10.768001
924,12.01526,-1.977967,9.536894
925,13.351951,-2.5695925,6.695716
926,10.872687,-4.05733,2.7622147
927,8.666505,-4.054937,1.1069796
928,5.0276194,-2.5145576,0.4866403
929,3.2356944,-1.4174483,0.6206384
930,1.4249259,-0.18843478,0.024227329
931,-0.2545365,0.7935198,-1.5305092
932,-0.9346963,1.1003993,-2.1053848
933,-1.7252251,1.1386845,-2.225026
934,-2.6907291,1.7087744,1.1644074
935,-3.62722,1.524228,4.019942
936,-1.5646069,-2.6895328,2.9180472
937,1.015155,-5.6910295,2.0030916
938,3.9759738,-11.071291,-1.1422737
939,9.744472,-23.664417,-2.2752752
940,12.774682,-51.186363,4.0151563
941,3.880261,-77.65906,4.223631
942,-14.749658,-72.812996,0.28055847
943,-29.97788,-53.548378,10.298709
944,-26.889942,-38.674595,1.7443677
945,-23.219952,-26.80739,-2.198705
946,-9.8219385,-15.824036,2.283351
947,-3.1914272,-13.730315,0.82672024
948,10.786546,-10.570593,-2.7448666
949,18.097515,-6.9726853,-11.974881
950,7.8089767,-5.889933,-6.367002
951,2.5411777,-1.7407784,-6.180063
952,2.7352953,0.86560357,-6.800402
953,4.7377887,6.154639,-6.4148583
954,5.197809,8.373085,-11.665908
955,5.046762,12.500404,-13.294822
956,4.3187456,12.771092,-15.079269
957,0.84047896,11.767303,-17.393427
958,-0.3909274,10.981561,-21.01287
959,-2.434398,9.427123,-17.515461
960,-1.8523438,8.020741,-13.309178
961,-0.99690974,5.4696937,-9.461819
962,-1.4569299,1.9148563,-5.770591
963,-2.5253253,-1.1946167,-4.2014976
964,-3.2488549,-2.8594232,-2.766402
965,-4.5305104,-3.7193437,-1.6046867
966,-4.3651066,-6.344868,20.53939
967,-5.5052867,-12.846467,51.266525
968,-2.1852453,-24.84049,44.14698
969,5.643173,-26.759533,7.8071823
970,14.621642,-6.852745,-33.62783
971,-0.055633128,-6.136693,-19.482363
972,-0.22791636,-2.3108685,-6.1968126
973,-13.501502,-14.118252,0.82672024
974,-22.345673,-34.123146,-19.530218
975,-20.697617,-44.3399,-23.104198
976,-2.5372894,-27.973892,-6.968199
977,3.595216,-18.044575,-6.951449
978,2.3973093,-16.029818,-15.503397
979,2.8956144,-17.110477,-16.365711
980,0.948156,-23.944677,-12.940085
981,6.148657,-26.742785,-16.099808
982,9.763614,-29.0375,-12.053844
983,16.820646,-32.347973,-14.123635
984,17.175383,-36.250366,-22.369003
985,10.896615,-37.87928,12.447463
986,13.984552,-34.166218,27.2707
987,11.555539,-24.308685,49.43153
988,-4.721936,-14.161622,42.525246
989,-14.684752,-12.923037,34.94837
990,-23.943481,-9.236296,10.739287
991,-13.73869,-4.64417,4.2188454
992,-7.5750785,-3.647559,8.0563345
993,3.8778682,-2.5839493,11.560923
994,7.806584,-2.8642087,13.513466
995,9.138489,-3.6044881,15.151951
996,11.799606,-3.321836,15.352948
997,10.120443,-3.4920256,6.6335025
998,10.036695,-4.325625,-3.542574
999,7.655537,-4.7638106,-5.291428
1000,3.6023946,-3.3003006,-3.458825
1001,1.4392828,-1.6857436,-2.5845475
1002,0.8356933,-0.6125626,-2.7424738
1003,0.44985065,0.91346,-3.367898
1004,-0.25932217,1.5984055,-3.9020956
1005,-0.8533404,2.067997,-3.1905298
1006,-2.228316,2.676372,2.9156544
1007,-3.5171502,2.20708,5.8692946
1008,-1.8762721,-1.4581263,1.3130615
1009,-0.75254273,-4.62742,1.8017955
1010,2.7927232,-6.9101725,-3.0514472
1011,6.3858457,-11.1885395,-5.4780684
1012,9.976874,-34.15186,6.259624
1013,7.763214,-77.65906,8.039585
1014,-3.6655052,-70.26883,5.5794644
1015,-20.510677,-58.241005,9.850653
1016,-26.94737,-45.892246,5.2031927
1017,-23.948267,-34.870605,-0.7112665
1018,-8.746365,-19.091434,2.5851457
1019,1.6139588,-13.871492,5.9817576
1020,10.997114,-12.820146,-1.6669
1021,15.340386,-9.454341,-12.020345
1022,5.267201,-6.754639,-6.323931
1023,-0.4124628,-3.81057,-5.6075797
1024,0.5697909,-0.6053841,-7.289136
1025,2.3039892,2.269293,-7.449754
1026,4.179663,5.6853466,-11.469398
1027,2.1577277,8.277073,-10.987842
1028,-0.1896312,10.502697,-12.540185
1029,-2.9036903,11.192428,-13.390534
1030,-3.2679975,11.78166,-21.935305
1031,-3.3445678,11.774482,-21.439392
1032,-1.6319051,11.554342,-15.910476
1033,-0.75493556,8.792128,-10.542178
1034,-0.8389834,5.4960146,-6.661618
1035,-0.46271208,2.5136602,-5.1236315
1036,-1.6654046,-0.6939186,-3.365505
1037,-3.1695926,-2.751746,-1.5783657
1038,-4.3124647,-3.6523447,0.82672024
1039,-4.267001,-6.2922263,35.434414
1040,-6.341279,-17.563019,54.823753
1041,-1.0929217,-22.648664,21.959831
1042,10.400702,-15.804893,-10.652547
1043,0.31345975,-10.036395,-19.832014
1044,-3.6367912,-13.0259285,9.675677
1045,-12.437892,-28.120153,2.5803602
1046,-13.182958,-40.253258,-24.491138
1047,-15.566507,-45.516273,-18.488144
1048,-1.9648064,-22.615166,-12.932907
1049,5.391927,-11.720345,-20.488544
1050,4.936692,-11.040185,-12.9592285
1051,3.7196429,-12.891931,-9.445069
1052,0.70618176,-16.535301,-11.502896
1053,2.033301,-19.16322,-10.570892
1054,5.5259247,-21.230618,-9.636794
1055,12.650255,-28.251759,-11.282458
1056,22.423738,-37.16532,-27.320353
1057,15.38585,-39.2734,-6.1034923
1058,14.334204,-38.581276,19.485353
1059,8.201698,-29.945278,49.73093
1060,-4.7099724,-17.627625,49.809895
1061,-12.998411,-14.595021,30.748968
1062,-20.050957,-14.283656,21.250658
1063,-20.510677,-8.2660055,11.764611
1064,-8.808877,-4.0094733,12.758829
1065,-0.573081,-3.9038901,15.166308
1066,6.572785,-4.1985064,11.886645
1067,10.355239,-4.601099,11.774183
1068,10.920544,-4.543671,13.460525
1069,12.808182,-4.093222,5.8884373
1070,11.900404,-4.24397,-2.1628125
1071,8.927621,-3.769892,-3.609573
1072,5.5259247,-2.2127628,-3.501896
1073,2.8453653,-0.70348984,-3.0849466
1074,1.4488541,0.5949155,-3.350849
1075,0.98644114,1.4548361,-4.000201
1076,-0.1680958,1.7973089,-4.000201
1077,-0.42203408,2.1759732,-1.791626
1078,-1.6677973,2.9422746,5.349454
1079,-3.7854455,2.8345976,10.260124
1080,-2.3431716,1.6223338,1.128515
1081,0.21984059,-2.684747,-2.6539395
1082,0.8644072,-4.9698925,-1.0393823
1083,3.6550367,-6.4121666,-4.9438705
1084,5.2169514,-16.588243,9.1510515
1085,6.026623,-63.269222,31.273594
1086,3.554538,-77.63513,4.805685
1087,-13.180565,-77.65906,4.240381
1088,-25.002304,-59.671314,6.448956
1089,-24.851257,-43.448875,4.7769713
1090,-9.546465,-18.787247,5.1409793
1091,-4.79402,-13.227224,4.9806604
1092,13.900505,-7.9259257,-9.713365
1093,12.149557,-10.630414,-7.2580295
1094,4.495815,-6.7666035,-7.7276206
1095,1.7027924,-3.6954155,-8.975478
1096,2.3542383,1.5553347,-8.221141
1097,3.609573,4.9474597,-10.985449
1098,3.1423743,8.499905,-13.507783
1099,1.6932211,11.180464,-12.61197
1100,-1.34686,11.937493,-12.243176
1101,-2.0174487,12.29193,-16.947765
1102,-2.94706,12.224931,-23.322245
1103,-1.3803595,12.569797,-17.398214
1104,-0.66161543,11.65484,-13.19881
1105,-0.11306087,8.729915,-8.503793
1106,-0.14656039,5.0336018,-4.517649
1107,-0.67118675,1.6151553,-1.7482561
1108,-1.5864414,-1.2520444,-1.547259
1109,-1.7970098,-2.6512475,-0.44775695
1110,-2.3168504,-4.354339,1.8711873
1111,-1.3181462,-11.516954,59.741604
1112,-4.7027936,-17.33301,36.074196
1113,0.63918275,-19.500906,6.178268
1114,14.485251,-12.815061,-8.012666
1115,-0.19920248,-8.771489,-19.834406
1116,-2.8319056,-9.978968,1.1237293
1117,-17.40629,-24.521946,35.424843
1118,-12.363714,-41.740997,-32.971302
1119,-19.801804,-50.898926,-30.35774
1120,-0.036490545,-20.708384,-8.084451
1121,3.5808592,-13.5481615,-14.746367
1122,4.0070806,-13.068999,-12.906587
1123,1.1829517,-16.556837,-12.28864
1124,-0.2856432,-19.488943,-10.980663
1125,-3.124129,-21.132513,-11.208281
1126,2.902793,-19.259232,-11.260922
1127,9.466604,-21.884457,-11.622538
1128,13.668102,-25.937899,-12.820445
1129,11.004591,-29.356045,-9.05474
1130,12.051152,-34.001114,-15.663716
1131,11.466705,-38.684166,11.196915
1132,9.128918,-32.223545,51.22794
1133,-2.1397817,-18.123537,65.50053
1134,-16.943876,-16.240686,49.905907
1135,-25.57718,-12.27847,16.054943
1136,-11.494223,-3.9804604,9.623035
1137,-1.8906289,-3.7531424,12.14537
1138,7.265208,-3.6762729,11.548959
1139,10.683355,-4.1721854,10.751251
1140,11.553146,-3.6068811,8.913862
1141,11.516954,-3.2596226,4.8415775
1142,10.031909,-3.2285159,-1.9567307
1143,7.914261,-3.1540394,-2.5989046
1144,6.091229,-2.9458637,-1.8323039
1145,2.603391,-1.0917253,-1.015454
1146,2.3638096,0.5347959,-1.2335001
1147,2.2609184,1.538585,-2.2202404
1148,1.6621144,1.7614166,-3.6290147
1149,0.7899306,1.8523438,-2.5606194
1150,-0.587438,2.14696,3.1671999
1151,-3.112165,2.650051,12.502499
1152,-3.739982,1.3253247,10.11177
1153,-0.7262217,-0.24616162,-3.9738803
1154,0.5024927,-3.784249,-3.5736806
1155,0.9457632,-4.2705903,-2.6659036
1156,3.3412778,-6.47438,-4.8194437
1157,4.9989057,-16.782063,-1.8394824
1158,2.3159533,-77.65906,16.843079
1159,1.0893325,-77.65906,7.1629148
1160,-17.370398,-73.94121,10.655539
1161,-18.373886,-44.82385,19.931017
1162,-11.098808,-29.145477,7.50778
1163,-5.879165,-19.05315,6.8395844
1164,9.341879,-15.203397,-9.090632
1165,16.703398,-10.335797,-14.32224
1166,2.8381867,-6.364011,-10.314561
1167,-2.9949167,-4.0884366,-10.491929
1168,-0.587438,-0.60059845,-10.8200445
1169,1.0295119,2.9856443,-13.004992
1170,2.8956144,7.5873413,-16.226927
1171,1.1733804,11.604591,-14.8277235
1172,-5.785546,14.44547,-12.796516
1173,-8.346464,14.44547,-11.02852
1174,-7.2397842,13.969,-10.79851
1175,-4.7267222,11.063215,-20.708683
1176,-2.297708,8.538189,-20.814266
1177,1.1805589,7.5873413,-17.288143
1178,1.4608182,6.125925,-9.416355
1179,1.2403795,2.7388847,-4.5487556
1180,0.78753775,-0.030508488,-1.1877373
1181,-0.029312078,-1.1539388,0.22552353
1182,-1.2221341,-2.6006992,1.3896317
1183,-3.3086755,-4.502694,1.3776677
1184,4.421637,-10.49163,66.05626
1185,-4.2717867,-14.801104,48.305706
1186,-1.5311074,-19.654346,4.3408794
1187,7.7440715,-10.994721,-29.42125
1188,-0.56111693,-15.177075,-5.564509
1189,-2.975774,-27.485157,14.730216
1190,-5.7352967,-33.74239,-21.08974
1191,-18.290138,-48.56084,-16.538292
1192,-11.43171,-31.248468,-7.3803625
1193,-0.721436,-18.183657,-8.00788
1194,1.2667005,-13.320544,-8.729017
1195,1.3504493,-13.797315,-7.832905
1196,0.40917268,-15.605989,-8.103593
1197,-0.42921257,-16.480267,-8.410173
1198,5.6120663,-17.3692,-15.745371
1199,10.149158,-23.417658,-9.097811
1200,18.463917,-29.995827,-18.308384
1201,16.784754,-35.79274,-10.149456
1202,9.773185,-34.6717,10.684252
1203,7.5981092,-30.422049,28.604998
1204,2.8094728,-20.33959,33.896725
1205,-6.029913,-15.907784,29.467312
1206,-14.5100765,-15.2324095,29.558239
1207,-24.582962,-12.139687,14.948262
1208,-25.217958,-5.539983,10.70818
1209,-17.2361,-1.6689938,11.922837
1210,-4.2837505,-1.678565,15.793826
1211,4.340281,-3.24048,13.269099
1212,9.025727,-3.8129628,12.396915
1213,12.9185505,-3.7073796,6.7818575
1214,12.417852,-3.5494533,2.3168504
1215,7.8520474,-3.932604,-2.481357
1216,6.1944194,-2.7110682,-1.8586249
1217,2.9530423,-0.97178507,-0.6511469
1218,2.033301,0.46779683,-0.73519474
1219,1.8272192,1.3396816,-1.0130613
1220,1.082154,1.8786649,-1.4488541
1221,0.9098708,1.8164514,-1.7844474
1222,0.50488555,1.8260227,-0.9699905
1223,-0.328714,2.0895324,1.5143577
1224,-0.56350976,2.0368903,2.932404
1225,0.55752766,-1.3046865,0.73100734
1226,1.8631115,-4.8598228,0.81236327
1227,5.588138,-7.149754,-4.138985
1228,10.149158,-13.294224,-1.329213
1229,7.8281193,-50.762238,18.464813
1230,2.4454648,-77.57023,9.471989
1231,-7.9534435,-69.456764,12.0640135
1232,-16.486248,-57.32605,7.5149584
1233,-24.139992,-43.961536,5.066802
1234,-31.206594,-35.09104,-5.741578
1235,-14.459827,-18.279371,-1.2335001
1236,-3.0619156,-11.799606,2.0485554
1237,2.8573294,-11.274981,3.1767712
1238,13.385449,-10.503594,-7.205387
1239,8.690433,-8.836395,-7.4138618
1240,0.90508515,-5.655137,-6.5632133
1241,-2.5253253,-2.0210378,-5.4637113
1242,-0.9059825,2.257329,-4.936692
1243,0.4139583,5.7810597,-7.11446
1244,1.3169497,8.212466,-10.8200445
1245,-0.12502499,9.939785,-10.175777
1246,-1.0016954,10.025927,-9.301499
1247,-0.86530447,10.512268,-12.80848
1248,-0.34307095,10.615159,-22.84308
1249,-0.25692934,11.300404,-18.49293
1250,-0.88683987,9.78156,-11.337493
1251,0.3804588,7.512865,-8.906086
1252,0.30867413,3.0909286,-7.1096745
1253,-1.2867404,0.16360925,-2.9748766
1254,-1.4593227,-0.8425727,-1.3746766
1255,-1.7754744,-1.2664014,0.6302097
1256,-2.2211375,-2.6389842,1.9262222
1257,-4.9878387,-13.167404,78.709206
1258,-3.531507,-18.343977,47.891148
1259,5.779863,-21.295225,-8.510971
1260,12.029616,-11.749357,-23.657537
1261,-1.6271194,-6.8096743,-12.602399
1262,-0.51565325,-4.9938207,-4.4817567
1263,-7.153343,-15.996319,-6.053243
1264,-20.594725,-45.806103,-20.81666
1265,-25.00709,-57.45526,-18.57668
1266,-6.3341007,-26.344976,-4.165605
1267,0.9314062,-17.273188,-3.9978085
1268,2.7879374,-13.107583,-7.018448
1269,-0.41006997,-15.002399,-6.719046
1270,-3.222534,-14.61895,-8.717052
1271,-0.47706902,-16.643278,-8.685647
1272,1.1685947,-20.777777,-9.102596
1273,7.897511,-25.31726,-10.824831
1274,16.166807,-26.459833,-13.400105
1275,18.490238,-30.261728,-22.215563
1276,10.012766,-34.094433,3.5790644
1277,11.845369,-31.643883,28.140192
1278,5.5713882,-23.515764,49.43153
1279,-8.645866,-14.805889,52.85476
1280,-18.805193,-13.356736,31.124939
1281,-25.498217,-10.587343,6.276374
1282,-13.245171,-5.84417,10.837692
1283,3.5473595,-3.1061828,15.968801
1284,9.624531,-4.241577,12.322738
1285,13.385449,-4.1674,10.008579
1286,11.033305,-3.6906297,9.7812605
1287,11.057234,-4.3208394,4.1276193
1288,9.071191,-4.325625,-0.33738798
1289,7.049555,-3.6978083,-1.8442681
1290,3.065804,-2.562414,-0.9771689
1291,1.939981,-1.3839488,-0.9915259
1292,1.0199406,0.22103699,-1.8131614
1293,0.526421,1.172184,-2.8528428
1294,0.25573292,1.2032907,-2.7065816
1295,-0.32632118,1.4285151,-2.0958135
1296,-0.63529444,1.4596218,-0.75194454
1297,-1.1814562,1.442872,0.1274178
1298,-2.4439692,0.4319045,2.623431
1299,-0.6161518,-4.15065,3.042474
1300,1.2571292,-6.4480586,1.0615159
1301,6.745367,-10.30469,-4.8792644
1302,7.705786,-25.28376,-1.5879369
1303,5.343771,-77.65906,14.560027
1304,-6.937989,-77.65667,5.543572
1305,-24.061028,-65.91868,10.75843
1306,-31.501211,-43.21647,5.44756
1307,-23.859732,-26.452654,-3.5449667
1308,-12.924233,-17.66621,-1.4009976
1309,-1.061815,-10.932208,0.76689965
1310,4.6564326,-8.388339,-1.8131614
1311,17.493927,-8.033902,-8.843872
1312,9.938589,-4.371089,-7.706085
1313,1.8990039,0.62123656,-7.1096745
1314,2.2082763,3.8982072,-6.6017976
1315,3.269493,6.538089,-7.5717883
1316,2.318346,9.6834545,-9.256036
1317,2.1361923,13.70549,-10.369895
1318,1.8870398,14.162818,-12.032309
1319,2.0955145,12.414263,-20.39971
1320,-0.613759,10.670195,-20.222641
1321,-1.1886346,10.114461,-16.770697
1322,-0.4531408,8.650951,-11.622538
1323,0.05712864,5.3425746,-6.870093
1324,0.58654064,2.3362923,-5.8160543
1325,-0.94426763,0.19950159,-3.8276188
1326,-1.591227,-1.5538392,-1.9208384
1327,-3.641577,-2.548057,-0.4549354
1328,-5.471787,-3.6427734,0.39332023
1329,-7.467401,-8.877073,43.828434
1330,-5.4406805,-15.098113,51.61857
1331,0.43070808,-20.289042,28.365417
1332,13.076477,-15.629917,-25.051956
1333,13.730615,-7.5068827,-26.685656
1334,-2.879762,-11.892927,-4.8433723
1335,-7.392925,-15.007185,-6.311967
1336,-15.523437,-40.751564,-14.418252
1337,-23.023739,-53.93153,-20.962622
1338,-15.528222,-39.994534,-12.207284
1339,0.80907315,-16.829918,-7.262815
1340,4.558028,-12.120544,-9.34457
1341,4.167699,-13.346866,-11.970096
1342,3.4130623,-15.17229,-11.641681
1343,8.863015,-18.238693,-21.000908
1344,13.2514515,-25.056143,-11.416755
1345,14.420345,-29.856743,-8.393424
1346,12.573385,-32.48945,-13.864912
1347,13.023834,-34.434513,-18.409182
1348,9.174381,-38.7057,10.605289
1349,10.096515,-35.919857,33.877583
1350,-0.2952145,-20.054546,63.320667
1351,-9.311669,-14.238192,31.03162
1352,-19.054346,-13.203297,17.161623
1353,-27.349962,-10.323833,2.8845477
1354,-17.734406,-2.7326035,8.219346
1355,-8.118847,-0.9239286,16.864614
1356,1.7602202,-1.434198,14.476278
1357,8.038688,-3.4561331,15.714863
1358,11.720643,-5.286044,15.487246
1359,14.034802,-4.438088,13.523037
1360,12.899407,-3.9661036,3.6583266
1361,9.5455675,-5.0682974,-2.998805
1362,6.567999,-4.0501513,-4.301996
1363,3.9759738,-2.1505494,-3.243172
1364,1.8583258,-0.62452674,-2.6778677
1365,0.552742,0.3912265,-3.2407792
1366,0.1576272,1.0091729,-3.6338003
1367,-0.6161518,1.198505,-3.03709
1368,-1.0016954,1.4787644,-1.7051853
1369,-1.5646069,1.6295122,-0.4621139
1370,-2.9566314,2.1445673,1.1237293
1371,-3.124129,-1.8197416,4.887041
1372,-1.1383854,-4.8861437,6.3939214
1373,0.53599226,-7.561918,0.2542374
1374,6.311668,-10.024431,-7.411469
1375,6.2231336,-16.616957,-4.2110686
1376,7.5885377,-77.3764,9.510572
1377,-5.680262,-77.19665,7.105487
1378,-21.502502,-57.72834,8.015656
1379,-28.039694,-39.117863,2.4939194
1380,-17.034803,-25.271797,-0.07148558
1381,-6.8132634,-12.4223385,-2.0045872
1382,-4.499105,-12.007782,1.1452647
1383,1.9328024,-10.287941,-3.5401812
1384,13.495819,-6.1701922,-7.986345
1385,5.3772707,-1.7958134,-7.344171
1386,0.7372885,0.13010973,-4.9079785
1387,0.33738798,2.0177476,-5.523831
1388,3.0323045,6.1067824,-7.7036924
1389,4.2442694,8.933603,-8.494222
1390,3.353242,10.485947,-9.64158
1391,2.3015962,9.927522,-11.58186
1392,2.1050856,9.661919,-16.442282
1393,-0.93230355,9.297611,-19.127626
1394,-2.1302104,9.882058,-13.864912
1395,-1.8017955,9.388538,-9.596116
1396,-0.6975078,6.7127647,-8.070093
1397,-0.8892327,3.3424742,-5.645865
1398,-1.2269198,0.36729828,-3.7390845
1399,-2.376671,-1.5299109,-2.5052853
1400,-3.3565319,-2.806781,-0.474078
1401,-4.2164526,-4.5915275,0.9945169
1402,-5.4406805,-12.592528,62.065334
1403,-3.2033913,-19.261623,47.697033
1404,1.4177474,-24.25365,12.890434
1405,15.074484,-15.261124,-12.707683
1406,5.5259247,-11.749357,-16.701004
1407,-0.45553362,-14.523237,-1.6046867
1408,-20.005194,-30.259336,-11.914762
1409,-20.29024,-44.47659,-26.060232
1410,-10.413863,-29.76821,-9.9553385
1411,-0.86291164,-12.587743,-8.194819
1412,2.0165513,-7.8373914,-12.3245325
1413,2.7592237,-9.392128,-12.506686
1414,1.5086746,-13.485949,-13.483854
1415,1.3842479,-17.975183,-9.732507
1416,-1.5143577,-21.611376,-8.930014
1417,2.4526432,-23.12065,-8.843872
1418,9.68465,-29.186155,-7.056733
1419,14.3365965,-31.511978,-8.02463
1420,17.290237,-31.952856,-13.498212
1421,8.45803,-34.822746,-15.285351
1422,6.1247287,-39.31677,3.5814574
1423,4.843073,-30.556345,59.940506
1424,0.090628155,-17.421843,77.46614
1425,-3.9290147,-7.207481,33.578182
1426,-16.347466,-9.861421,16.150656
1427,-15.161523,-6.663413,4.9061837
1428,-2.8510482,-1.3046865,14.430814
1429,3.8730826,-1.3241283,16.423737
1430,6.975078,-2.792424,11.836396
1431,12.063116,-3.6260235,11.790933
1432,9.710972,-4.72074,11.2806635
1433,7.7416787,-4.833502,4.065406
1434,6.27099,-4.7303114,-0.37088752
1435,4.4431725,-3.6547375,-1.8418752
1436,2.0907288,-2.4930222,-2.0021944
1437,0.6056832,-1.0339985,-2.3545375
1438,0.03798606,0.25214368,-3.4540396
1439,-0.093918286,0.8536395,-3.7534413
1440,-0.369392,1.7350955,-3.1953156
1441,-0.36699918,2.2932215,-2.7065816
1442,-0.08673982,2.6333013,0.29491538
1443,1.3313067,-2.5719852,5.4789658
1444,2.2609184,-6.8862443,1.995614
1445,6.9224358,-8.45773,-5.200202
1446,7.765607,-14.286049,-5.1140604
1447,8.278269,-39.491444,-3.4205399
1448,4.5484567,-74.6791,-7.3250284
1449,-15.257534,-63.499233,23.816362
1450,-31.827232,-54.880283,9.697213
1451,-34.25625,-45.5737,10.346565
1452,-27.979874,-28.690243,-2.579762
1453,-21.528824,-16.283756,-2.85045
1454,-8.082955,-9.123833,-0.72323066
1455,3.3029926,-7.370193,1.3154542
1456,12.221342,-7.4276204,-1.0896316
1457,17.132011,-7.5978103,-4.0384865
1458,9.332308,-6.081359,-3.976273
1459,4.438387,-3.9852462,-2.8241289
1460,3.4226336,-2.7182465,-3.0972097
1461,5.2863436,-1.1730813,-4.3594236
1462,4.4144588,0.46779683,-5.118846
1463,3.202195,3.1292138,-5.9500527
1464,1.695614,5.8911295,-8.235497
1465,0.2724827,8.289037,-13.004992
1466,-2.053341,9.752846,-22.24667
1467,-2.5636103,10.720444,-20.41646
1468,-1.3995022,11.429617,-12.595221
1469,-0.6233303,9.963714,-8.853444
1470,0.0065802624,6.425327,-5.8423758
1471,0.20548365,3.6227336,-4.888836
1472,-0.7959126,1.4237294,-3.3484561
1473,-1.8041883,-0.7704889,-1.2191432
1474,-1.7563318,-2.2965117,0.3379862
1475,-0.9490533,-4.0884366,1.8711873
1476,-1.2795619,-17.546268,63.207905
1477,-2.434398,-17.277973,12.047264
1478,7.0639114,-7.873284,-25.0376
1479,-4.0920258,-10.659127,-2.37368
1480,-14.006986,-19.726131,35.91836
1481,-9.163314,-37.48895,-22.6035
1482,-20.908484,-58.85925,-31.589148
1483,-12.205489,-39.906002,-17.544476
1484,1.8631115,-14.899209,-9.979267
1485,4.340281,-10.678569,-10.753046
1486,4.802395,-10.673485,-12.928122
1487,3.6789649,-12.903894,-12.753446
1488,2.7711878,-16.631313,-11.109876
1489,3.5617166,-18.18605,-8.939586
1490,8.692825,-18.710676,-7.696514
1491,15.3906355,-22.960032,-7.600502
1492,16.950157,-24.579372,-9.040383
1493,14.28874,-27.65774,-10.072886
1494,4.9845486,-33.919456,-15.294922
1495,3.920939,-38.05186,3.761218
1496,1.1350952,-32.911182,44.583073
1497,-6.8611197,-22.303799,77.62885
1498,-17.00609,-11.89532,37.444386
1499,-21.25335,-10.132109,12.962219
1500,-16.491035,-6.594021,3.6056845
1501,-3.6439698,-3.6667016,13.867903
1502,1.8894325,-2.6365914,16.833508
1503,8.517851,-3.6571302,10.427921
1504,11.807084,-4.1171503,6.901798
1505,12.350853,-3.9517467,4.7099724
1506,11.323136,-3.4896326,2.324029
1507,9.006584,-3.3170505,-0.104985096
1508,5.8683977,-2.3060827,-1.4994025
1509,3.1974092,-0.94785684,-0.9170493
1510,2.018944,0.32422748,-1.0345967
1511,1.285843,0.92303133,-1.4033905
1512,1.1446666,1.0307083,-1.4898312
1513,-0.30717862,1.3325031,-0.79740816
1514,-0.8892327,1.6728821,2.1394825
1515,-2.8151557,2.2334008,8.739186
1516,-3.667898,1.7470596,9.52493
1517,-0.3382853,0.48933223,-1.791626
1518,0.69900334,-4.3184466,0.8745767
1519,1.654936,-5.9042897,-1.966302
1520,6.349953,-7.7368927,-6.065207
1521,5.193023,-19.488943,0.31166515
1522,2.82383,-77.64949,15.944873
1523,-1.0280164,-77.65906,9.452846
1524,-12.842877,-67.37261,12.363416
1525,-21.911974,-45.446583,10.75843
1526,-22.237997,-36.013176,-3.4516466
1527,-9.4890375,-18.825533,0.86261255
1528,-3.05713,-14.992828,6.856334
1529,15.934404,-12.065509,-10.815259
1530,14.573786,-9.696316,-9.526724
1531,2.1074786,-6.375975,-7.9504523
1532,-0.07238288,-2.672783,-7.91456
1533,2.2010977,0.5276174,-8.388638
1534,2.8932216,4.712664,-10.695618
1535,3.3939197,9.271291,-12.336496
1536,1.8822541,11.683555,-13.54876
1537,-2.8989046,12.88864,-12.590434
1538,-2.8845477,12.814163,-16.116558
1539,-2.4320052,12.3759775,-20.823837
1540,-1.2675978,11.8130665,-18.571894
1541,-0.28803602,10.792527,-13.797913
1542,0.5937191,8.542975,-9.018847
1543,-0.00059820566,4.8589253,-4.8505507
1544,-0.75493556,1.564906,-3.0610185
1545,-1.1359925,-0.5982057,-1.2335001
1546,-2.6691937,-1.5777674,-0.35174492
1547,-3.5075788,-2.754139,0.68075806
1548,-4.607081,-5.9904313,46.06333
1549,-5.807081,-17.337795,61.095043
1550,-3.0906296,-21.693031,22.704895
1551,10.395917,-13.4763775,-29.560034
1552,3.892225,-14.870496,-7.7419777
1553,-4.295715,-25.037,2.1275184
1554,-14.502898,-48.862637,-23.947369
1555,-20.41257,-64.59395,-33.12235
1556,-7.4120674,-25.815565,-6.2231336
1557,2.5172493,-10.335797,-11.543574
1558,5.2289157,-7.2026954,-13.479069
1559,4.019045,-8.098508,-9.725328
1560,2.914757,-9.9502535,-8.319246
1561,2.589034,-11.928819,-12.334104
1562,2.239383,-13.1745825,-12.894622
1563,5.6530433,-16.79642,-6.9969125
1564,10.300204,-23.187649,-6.802795
1565,16.238592,-27.322445,-11.1269245
1566,12.964014,-31.627132,-12.772588
1567,8.129914,-36.760635,-17.59233
1568,7.2987075,-40.409092,6.166304
1569,4.759324,-34.2718,50.075794
1570,-4.1901317,-18.89971,68.57381
1571,-11.673684,-14.374583,45.716072
1572,-16.92952,-11.243874,19.109081
1573,-18.11995,-6.9149585,2.5995028
1574,-8.600403,-2.6799614,17.774784
1575,-1.7252251,-2.9072795,20.26631
1576,6.7812595,-3.9421754,15.891932
1577,9.310772,-5.343771,14.780465
1578,12.235699,-5.3533425,8.473284
1579,12.116057,-4.5074797,2.0461624
1580,10.177871,-4.316054,-3.1450663
1581,7.643573,-3.3409786,-3.8084764
1582,4.3666024,-1.8005991,-1.9519451
1583,2.8166513,-0.56470615,-1.4994025
1584,1.8056837,0.994816,-1.6310078
1585,1.1087742,1.591227,-2.0264218
1586,1.0510473,1.7255242,-1.7724833
1587,1.0007981,1.7374884,-1.1039885
1588,0.5626124,1.6680965,-0.4764708
1589,0.23419751,1.5074782,-0.05712864
1590,0.9768698,0.750449,1.0112667
1591,0.58654064,-4.3040895,3.1169505
1592,2.2585254,-5.587839,-0.9457632
1593,7.7703924,-8.309376,-6.2063837
1594,5.2480583,-31.88825,11.517852
1595,0.84765744,-77.65906,14.823536
1596,-0.4866403,-77.65906,13.630714
1597,-16.687546,-71.93603,10.365707
1598,-26.0707,-45.15675,9.48156
1599,-22.647469,-28.275686,-4.0767717
1600,-11.462817,-15.536597,-0.3493521
1601,-6.084948,-11.983854,-1.7581264
1602,2.1122642,-10.388439,0.8530413
1603,15.222838,-8.941679,-11.85494
1604,5.9931235,-7.813463,-7.8089767
1605,0.22701904,-3.7339997,-6.6927247
1606,-0.6975078,-1.2137593,-5.8543396
1607,0.38524446,1.4045869,-6.0290155
1608,2.0428724,4.8804607,-6.9035926
1609,1.6860427,8.068897,-10.7889385
1610,-0.55393845,10.325329,-12.063416
1611,-0.10109676,11.379367,-13.493426
1612,0.5383851,11.599806,-16.921444
1613,-1.8834505,11.386545,-20.222641
1614,-0.99690974,11.302797,-13.019348
1615,0.08584251,10.243973,-8.898908
1616,0.3469593,6.54766,-5.078168
1617,-0.3574279,1.8332013,-2.9006991
1618,-0.99690974,-0.1381855,-1.2933207
1619,-1.6199409,-1.1850454,-0.061914288
1620,-2.4272194,-2.3132613,0.8554341
1621,-3.2249267,-3.824927,1.0184451
1622,-2.515754,-11.540883,78.709206
1623,-1.3133606,-15.488441,45.82375
1624,3.0299118,-15.184255,-9.766006
1625,7.0351977,-6.0957155,-26.175386
1626,-2.3024936,-10.197014,-2.8313074
1627,-8.789435,-22.071396,23.26063
1628,-6.343672,-37.66602,-20.593828
1629,-25.299314,-58.63881,-23.861227
1630,-15.298212,-32.16133,-10.391431
1631,0.35653058,-17.177475,-7.4330044
1632,7.880761,-8.029117,-12.101701
1633,6.3475604,-9.078369,-10.884951
1634,2.1003,-14.180764,-8.879765
1635,1.2690933,-15.981961,-11.356635
1636,5.128417,-16.578672,-12.034701
1637,8.898908,-22.677378,-9.076276
1638,19.592432,-26.000113,-12.650255
1639,19.740788,-27.41098,-14.506786
1640,9.382557,-31.025936,-21.702902
1641,5.276772,-38.866318,1.5813566
1642,8.560922,-36.58566,22.944477
1643,-3.9720855,-24.490839,74.72785
1644,-15.851553,-16.808382,39.157047
1645,-21.322742,-14.556737,16.033407
1646,-22.161127,-8.467302,3.8090746
1647,-9.922736,-5.0754757,17.956938
1648,-0.46271208,-3.8153558,17.76282
1649,9.2437725,-4.1817565,11.477174
1650,11.387742,-4.8454657,11.508281
1651,12.420245,-3.8608193,8.621639
1652,12.750753,-3.5877385,3.03051
1653,10.573285,-3.3481572,-1.8729819
1654,7.9716887,-2.3925235,-2.1460629
1655,5.3700924,-1.4581263,-0.91226363
1656,2.57707,0.07986046,-1.3842479
1657,2.1723838,0.85124665,-1.3507484
1658,1.1685947,1.3830515,-1.9639091
1659,1.0103694,1.5026926,-2.1197417
1660,0.22941187,1.5577276,-1.1183455
1661,-0.6879365,1.7997017,0.2542374
1662,0.25094727,1.294218,2.0413768
1663,-1.8233309,-3.7962132,4.173382
1664,0.16719848,-5.3051867,3.0065815
1665,5.0802617,-7.4659057,-4.1871405
1666,4.996513,-14.640486,-1.6669
1667,-0.2952145,-71.196045,17.482561
1668,-4.0130625,-77.65906,8.760722
1669,-14.933906,-67.70103,6.791429
1670,-21.176779,-49.24369,6.793822
1671,-23.03331,-34.504204,-1.3866407
1672,-14.756836,-17.630018,1.7898313
1673,-5.395217,-11.5672035,5.0309095
1674,-2.3001008,-12.642777,4.7865424
1675,14.95215,-9.669994,-7.509575
1676,13.694722,-8.160722,-6.4292154
1677,0.9601201,-4.3782673,-5.5070815
1678,-0.49142596,-0.7393822,-4.8768716
1679,2.2417758,1.9076779,-5.710471
1680,5.6554365,4.0154557,-8.544471
1681,4.1557345,6.9595246,-10.688439
1682,3.62393,9.271291,-9.330214
1683,0.14566308,10.718051,-10.010373
1684,-1.454537,11.384152,-14.310276
1685,-2.8199415,10.409078,-23.928226
1686,-2.2307088,10.593624,-19.54936
1687,-0.41724846,9.42473,-14.559428
1688,1.137488,6.545267,-9.358928
1689,1.1590235,2.719742,-7.5717883
1690,0.38524446,0.5587241,-5.200202
1691,-1.102493,-1.7934206,-1.6477575
1692,-1.9528424,-3.431906,0.12502499
1693,0.090628155,-8.330911,71.80053
1694,-3.4019957,-20.325233,78.4457
1695,-8.571689,-34.197323,15.425032
1696,4.4982076,-26.402405,-27.629324
1697,-1.265205,-26.759533,-3.1570303
1698,-6.2790656,-24.421448,-12.932907
1699,-11.836696,-29.250761,-23.274387
1700,-12.41875,-25.954649,-18.98645
1701,-0.939482,-11.797214,-10.147063
1702,1.4847465,-6.2228346,-11.210673
1703,6.5512495,-5.1400824,-21.13999
1704,3.554538,-10.060324,-16.32264
1705,0.8210373,-15.45255,-9.993624
1706,-2.2737796,-20.87618,-2.984448
1707,1.2762718,-22.454845,-4.817051
1708,5.0515475,-26.586952,-16.380068
1709,13.984552,-34.127934,-22.823938
1710,11.354242,-38.700916,-18.746868
1711,3.1591241,-41.134716,-13.127025
1712,8.422137,-36.938004,-9.821341
1713,0.7588239,-35.807095,22.937298
1714,-10.583754,-27.015865,78.709206
1715,-16.761723,-18.149858,65.92675
1716,-27.7379,-11.440085,34.08576
1717,-17.92613,-4.366303,4.7482576
1718,-9.745368,-2.495415,3.3637104
1719,0.43070808,1.564906,16.924435
1720,7.739286,-1.747957,14.488242
1721,13.284951,-4.85743,9.857831
1722,14.652748,-5.171189,11.707184
1723,13.074084,-4.871787,4.9253263
1724,10.029516,-4.922036,-1.1566306
1725,5.957231,-3.8727834,-2.5172493
1726,2.754438,-2.167299,-1.6214365
1727,0.8380861,-0.497408,-1.6740786
1728,-0.17048861,0.9589237,-2.1867409
1729,-0.7815557,1.9028922,-2.6108687
1730,-1.0737791,2.53041,-2.076671
1731,-2.6715865,2.7699914,1.3130615
1732,-4.048955,2.1230319,2.024627
1733,-2.5372894,-2.7110682,2.0030916
1734,-0.86530447,-5.6168523,3.1576285
1735,-0.12981063,-11.98864,1.9812572
1736,4.6229334,-24.718456,0.6230312
1737,6.0840507,-48.146584,-6.858129
1738,-3.0762727,-77.65906,20.115263
1739,-10.466505,-73.98428,7.744969
1740,-25.692335,-59.970715,4.9663033
1741,-22.810478,-31.617561,-0.22013968
1742,-16.498213,-25.815565,-5.413462
1743,-10.794621,-19.901106,-7.3369923
1744,0.12173485,-12.498909,3.9098723
1745,8.515457,-11.892927,0.965803
1746,17.932112,-6.1821566,-13.060026
1747,8.493922,-4.0310087,-6.7525454
1748,3.7339997,-1.774278,-4.397709
1749,4.241876,-0.4112664,-4.7548375
1750,6.3044896,2.1302104,-7.1766734
1751,6.5344996,4.6097727,-9.859626
1752,7.2003026,9.48455,-9.682258
1753,4.666004,10.93849,-11.248959
1754,0.6726823,9.774382,-14.216956
1755,-0.1680958,9.810274,-18.131315
1756,0.0041874396,10.754242,-16.41596
1757,-0.1369891,9.067601,-13.845769
1758,-0.39571303,7.237391,-10.523036
1759,-0.16570297,4.5017967,-8.333603
1760,-0.1058824,1.1291132,-5.2483573
1761,-0.84855473,-1.6546369,-4.0552363
1762,-1.1072787,-3.8727834,-2.1628125
1763,-2.1131616,-5.499305,1.2125629
1764,0.62721866,-9.497412,75.34131
1765,-2.6258237,-19.060328,59.748783
1766,0.96490574,-23.015364,18.872192
1767,8.575278,-15.553348,-19.465612
1768,0.72293156,-6.146264,-21.240488
1769,-3.9816568,-9.622138,3.4354951
1770,-26.166412,-28.294828,27.308987
1771,-11.625828,-30.767212,-23.732016
1772,-12.816257,-35.526836,-34.054054
1773,-2.9207392,-22.08336,-12.810873
1774,5.6985073,-11.98864,-8.953942
1775,6.9535427,-9.650852,-12.585649
1776,5.7200427,-12.0125675,-13.656437
1777,0.69182485,-18.679272,-6.719046
1778,-2.841477,-22.907389,-8.563613
1779,-2.2378874,-25.456343,-10.389038
1780,5.6482577,-26.81457,-10.34836
1781,20.442781,-29.396723,-10.24517
1782,20.449959,-29.835209,-11.675479
1783,9.81147,-32.27858,-18.255741
1784,6.1701922,-37.9056,-4.189533
1785,7.1955166,-38.461334,13.199408
1786,1.6115661,-29.67459,65.718575
1787,-7.941479,-14.511273,63.60332
1788,-17.46611,-11.272588,23.912075
1789,-23.473888,-8.898608,-1.0226326
1790,-11.364711,-3.0798619,8.578568
1791,-3.9744785,-1.3671991,19.147665
1792,3.6454654,-2.6078775,17.628822
1793,9.792328,-4.9172506,13.494024
1794,12.978371,-5.195117,11.460424
1795,11.636895,-5.2166524,6.1184473
1796,9.502497,-5.343771,-0.0020937198
1797,7.0543404,-4.200899,-2.3569303
1798,3.0562327,-3.024827,-1.3052847
1799,0.9768698,-1.2664014,-1.5305092
1800,-0.08673982,0.22821546,-2.4789643
1801,-0.36221352,1.2224332,-3.295814
1802,-0.654437,1.4907285,-3.377469
1803,-0.71665037,1.864308,-2.129313
1804,-0.84137625,2.0321047,-0.69930243
1805,-1.061815,1.9268204,0.3909274
1806,-1.2053844,1.715953,1.9932213
1807,-0.21595225,-2.6246274,5.188836
1808,-0.4459623,-4.8933225,4.6091747
1809,2.0093727,-7.0133634,-2.7975087
1810,5.751149,-9.157332,-4.388138
1811,3.85394,-62.73263,27.991837
1812,2.1074786,-77.62317,2.2761726
1813,-12.718151,-77.54151,5.4643097
1814,-22.93012,-53.773605,1.631606
1815,-19.382462,-32.726635,3.0762727
1816,-8.8447695,-17.771494,0.007477571
1817,-5.898308,-11.646167,1.9932213
1818,3.1399815,-10.328619,-4.8098726
1819,12.779468,-7.719844,-10.947164
1820,3.5401812,-2.085644,-8.223534
1821,-1.2747762,0.5300102,-6.640083
1822,-2.606681,3.821637,-6.4531436
1823,-2.1924238,5.6733823,-7.272386
1824,-0.721436,9.273684,-6.055636
1825,0.90508515,12.057135,-6.661618
1826,2.6464617,11.1732855,-11.440683
1827,4.2921257,9.273684,-18.806688
1828,0.8979067,9.434301,-16.710575
1829,1.0055838,8.940782,-13.304393
1830,1.4440684,8.039884,-11.16521
1831,0.68225354,5.050351,-8.834301
1832,0.96729857,2.7675984,-6.9442706
1833,0.07627122,0.5419743,-3.1953156
1834,-0.7118647,-1.0773684,-1.0322039
1835,-1.6366907,-2.1071794,-0.24885355
1836,-2.5468607,-3.10379,1.4327025
1837,-2.774478,-11.907284,78.709206
1838,-3.4692938,-17.517555,51.520462
1839,-0.1680958,-21.652353,3.0496526
1840,18.188442,-7.1282187,-18.05923
1841,5.8636117,-4.447659,-17.747864
1842,-0.46031925,-2.8594232,-6.1274204
1843,-2.5588248,-6.026324,-2.7113671
1844,-12.924233,-21.268904,-17.220846
1845,-31.623545,-55.2084,-34.427933
1846,-23.842981,-56.92585,-23.104198
1847,2.9796624,-26.80739,0.32362926
1848,3.9017963,-17.0695,2.1227329
1849,-0.40767714,-15.53899,-7.5215387
1850,-3.0403802,-18.420547,-11.845369
1851,-4.1111684,-17.601305,-14.504394
1852,3.2671003,-24.248865,-12.264711
1853,9.071191,-27.0039,-9.2895355
1854,16.703398,-31.191042,-8.240283
1855,19.151554,-32.10869,-24.692434
1856,10.350453,-34.930424,2.2351954
1857,12.58535,-34.439297,19.339092
1858,11.095519,-26.689842,35.623745
1859,-5.5076795,-17.891134,59.605213
1860,-16.768902,-14.266906,40.33581
1861,-23.287249,-10.89153,13.118052
1862,-19.09981,-4.560421,2.077269
1863,-8.008778,-3.1950164,15.396318
1864,1.9734805,-1.9205393,15.906288
1865,6.778867,-3.2883365,12.545569
1866,9.195916,-3.8823547,10.82812
1867,11.078769,-3.6379876,9.886545
1868,12.365211,-3.700201,3.409174
1869,9.794721,-4.1721854,-0.72083783
1870,7.0926256,-3.2285159,-2.6515465
1871,4.3040895,-1.7575282,-2.5196424
1872,2.1891336,-0.27008986,-2.1364915
1873,1.2044871,0.7743772,-2.3377876
1874,0.4833502,1.3926228,-2.9653056
1875,0.21984059,1.5218352,-2.277668
1876,0.16719848,1.6848463,-0.6678966
1877,-0.098703936,1.6680965,0.73340017
1878,-0.4316054,1.4333007,4.1108694
1879,-0.11784652,-1.4174483,5.0859447
1880,0.46899325,-4.9292145,5.241777
1881,7.154839,-8.218149,-3.2503505
1882,7.5550385,-23.479872,10.487741
1883,3.2383864,-77.65906,16.881363
1884,0.5479564,-77.65667,7.2346992
1885,-7.2876406,-76.52127,6.791429
1886,-20.855843,-53.059647,8.830113
1887,-26.329424,-38.751163,0.007477571
1888,-18.23271,-24.256042,-2.4717858
1889,-4.889733,-13.073785,3.2389846
1890,-1.7587247,-12.832109,2.5899315
1891,15.203696,-10.03161,-12.451352
1892,10.616356,-7.394121,-7.5119677
1893,0.3589234,-3.7507496,-7.3803625
1894,-1.2843475,-0.020937199,-6.690332
1895,1.1805589,3.4884362,-6.652047
1896,3.8467615,7.366903,-10.264312
1897,2.7352953,11.003395,-10.951949
1898,0.24616162,12.689736,-10.432109
1899,-1.2604194,12.459726,-11.835798
1900,-1.5311074,11.68834,-22.625334
1901,-1.0953146,11.980564,-20.140985
1902,-1.1551352,10.65823,-14.231313
1903,-1.1551352,7.3812594,-8.513364
1904,-0.88205427,4.638487,-6.6281185
1905,-0.8844471,2.079961,-5.3201423
1906,-1.4210376,-1.0244272,-1.9519451
1907,-2.4894328,-2.545664,-0.47886363
1908,-4.3651066,-4.0094733,0.42681974
1909,-5.3976097,-5.9952173,23.51696
1910,-5.5914283,-17.536697,55.29574
1911,-1.0208379,-23.62374,22.882263
1912,19.261623,-12.980465,-22.301704
1913,0.9290134,-10.165907,-17.865412
1914,1.5684953,-8.026724,-3.6290147
1915,-2.0724835,-13.684852,-1.2191432
1916,-14.742479,-36.62155,-25.648367
1917,-20.82683,-44.565125,-26.2041
1918,-7.496115,-28.989645,-5.3368917
1919,2.5148566,-14.079967,-3.6625142
1920,2.1529422,-12.410375,-11.878869
1921,0.974477,-13.828422,-13.103097
1922,-0.9131609,-16.957037,-10.479965
1923,-0.34546378,-19.15604,-11.064412
1924,2.7352953,-20.945574,-11.208281
1925,7.5981092,-25.741388,-9.373284
1926,12.393924,-29.8376,-12.202498
1927,17.987446,-32.68596,-18.250956
1928,10.118051,-36.940395,-8.745767
1929,9.461819,-38.336906,13.43181
1930,7.097411,-30.697521,48.279087
1931,-4.523332,-18.063717,64.52545
1932,-16.773687,-15.751951,40.35974
1933,-27.40739,-12.146865,5.6297135
1934,-21.469004,-5.08744,4.371986
1935,-8.88784,-2.5025933,20.800508
1936,0.104985096,-3.6571302,18.886549
1937,8.723932,-5.8707905,15.233307
1938,11.790035,-6.2754765,14.215161
1939,13.677973,-4.9722853,7.581958
1940,13.697115,-5.046463,-0.6774679
1941,10.333704,-4.759025,-4.3331027
1942,6.9822564,-3.4704902,-3.2120652
1943,3.3293135,-1.774278,-1.5424733
1944,1.7745771,-0.27726832,-1.4321043
1945,1.4895321,0.8536395,-2.2680967
1946,1.1159526,1.3686945,-3.1450663
1947,0.79710907,1.6800606,-3.4971104
1948,0.79710907,1.6800606,-3.4971104
1949,-0.67836523,1.6561323,-0.42622152
1950,-1.0809577,1.5840486,0.27337998
1951,-2.1517458,-1.4198412,0.6230312
1952,-0.8557332,-4.684848,2.702394
1953,1.2284154,-5.7173505,-1.1015958
1954,3.6287155,-6.510272,-3.4444683
1955,1.681257,-32.58516,26.59742
1956,-3.2823544,-77.65906,12.099906
1957,-7.6420774,-77.654274,7.9127655
1958,-19.698614,-60.207905,11.182557
1959,-24.405893,-39.98736,2.9156544
1960,-17.569,-32.070103,0.34277186
1961,-4.147061,-15.026328,3.6224344
1962,1.463211,-12.654741,2.2737796
1963,15.572789,-8.958429,-11.13171
1964,11.1936245,-8.670991,-8.355139
1965,4.692325,-6.387939,-8.02463
1966,-1.4497514,-0.33469605,-6.434001
1967,-0.50099725,2.1014965,-6.4794645
1968,1.0342976,6.937989,-8.242676
1969,1.2619148,10.639088,-9.603294
1970,1.1829517,12.61556,-11.636895
1971,-0.7716853,11.269298,-11.998809
1972,-1.0256236,10.770992,-19.101305
1973,-2.4224339,10.100104,-19.570896
1974,-1.4808581,10.433006,-17.606688
1975,0.68225354,8.677272,-12.156735
1976,0.45942193,5.85763,-8.043773
1977,-0.34785658,1.9483558,-5.562116
1978,-0.44835514,-0.4423731,-3.2527432
1979,-0.7118647,-1.2783655,-1.8873389
1980,-2.14696,-2.8139594,-0.48364928
1981,-3.4740794,-5.0970116,0.77647096
1982,-1.4353945,-15.955641,78.709206
1983,-0.5300102,-19.515562,54.562637
1984,1.7817556,-20.598314,-15.340386
1985,12.350853,-7.8517485,-27.619753
1986,-0.90119684,-11.23191,-0.7399804
1987,-5.6060843,-18.96671,4.724329
1988,-11.851052,-32.7051,-23.355743
1989,-16.119848,-42.651165,-20.62015
1990,-13.7171545,-28.383661,-7.099804
1991,-0.1274178,-14.915959,-5.1499524
1992,2.7927232,-12.266506,-8.59472
1993,2.2154546,-12.80549,-8.637791
1994,0.0041874396,-16.324734,-9.313464
1995,-2.0294127,-18.514166,-16.193129
1996,7.8089767,-21.632912,-14.4541445
1997,13.054941,-26.105396,-10.029516
1998,19.721643,-29.229225,-9.998409
1999,16.106987,-31.572098,-18.056837
2000,11.174481,-32.45834,-18.052052
2001,4.8673005,-38.55256,9.843474
2002,3.813262,-32.43202,44.35067
2003,-3.2584262,-18.784855,65.18916
2004,-13.326527,-13.306188,39.418163
2005,-21.92663,-12.206686,13.348062
2006,-22.542185,-9.042177,5.759225
2007,-12.274881,-2.0425732,10.24816
2008,-0.4962116,-1.1419746,18.95594
2009,6.960721,-3.649952,14.77568
2010,10.302597,-5.834599,13.518251
2011,11.6751795,-5.413163,8.616854
2012,9.938589,-5.86092,4.499105
2013,8.007581,-5.738886,-0.92183495
2014,5.672186,-4.215256,-2.9389844
2015,3.4130623,-2.6413772,-3.7199419
2016,1.1494522,-0.40648076,-4.1222353
2017,0.23419751,0.6451648,-4.5224347
2018,-0.53240305,1.2894323,-3.9403806
2019,-0.90358967,1.5672989,-3.013162
2020,-1.1575279,1.6079768,-2.4071796
2021,-1.1503495,1.986641,-0.49082774
2022,-0.695115,2.3578277,0.8817552
2023,-0.55393845,-2.7565317,4.8272204
2024,-0.41485563,-5.408377,4.1036906
2025,1.9806589,-7.1808605,-2.14367
2026,3.6670008,-13.934005,-3.5162528
2027,-1.1503495,-77.65906,36.047874
2028,-2.6282165,-77.65906,4.3097725
2029,-19.138094,-71.94321,8.501998
2030,-25.196423,-52.393543,5.596214
2031,-15.774982,-28.7046,0.6469594
2032,-2.8175488,-16.377375,-0.090628155
2033,-1.4856437,-13.560126,2.3336003
2034,8.618649,-10.4051895,-6.8339014
2035,16.296019,-8.373981,-10.307383
2036,5.9763737,-5.0368915,-6.48425
2037,-1.2412767,-0.60059845,-6.649654
2038,-1.4090735,1.1745768,-6.443572
2039,0.08105687,2.8752756,-6.556035
2040,1.1279168,7.522735,-9.440284
2041,1.1853445,10.080962,-9.404391
2042,-1.2125629,10.739885,-9.632009
2043,-1.5717853,10.710873,-11.208281
2044,-2.3312075,10.195817,-20.792732
2045,-2.6715865,9.927522,-17.831913
2046,-1.6271194,9.242577,-14.046766
2047,-0.49860442,8.262715,-10.741082
2048,0.6966105,3.8431723,-7.6292157
2049,-0.03888337,0.19710876,-5.8471613
2050,-0.4459623,-1.6378871,-2.8313074
2051,-2.1011975,-3.5207393,-0.25842485
2052,-2.935096,-4.61067,1.4039887
2053,-0.46749774,-12.3194475,78.709206
2054,1.9088743,-21.221046,46.825146
2055,5.4684973,-18.550058,-15.340386
2056,11.493027,-13.378271,-21.74358
2057,-1.8595223,-3.525525,-4.028915
2058,-1.605584,-3.4657044,-2.536392
2059,-12.588939,-19.460228,7.811968
2060,-17.39911,-36.157047,-27.102306
2061,-24.238096,-49.55745,-23.494827
2062,-0.8006983,-27.439693,-3.3149567
2063,7.0519476,-17.170298,-6.7166533
2064,2.9772696,-15.893427,-10.350753
2065,-0.7645068,-18.276978,-8.997313
2066,-2.9255247,-20.892931,-9.969695
2067,4.8287163,-20.131117,-16.33939
2068,7.557431,-24.828526,-8.542078
2069,12.50878,-27.679276,-10.5015
2070,14.410774,-28.429127,-13.464712
2071,8.381459,-32.13501,-3.621537
2072,6.4241304,-34.448868,18.100805
2073,8.141878,-28.340292,36.663425
2074,3.990331,-19.999212,43.876293
2075,-10.459327,-15.732809,34.049866
2076,-16.119848,-13.890934,25.23441
2077,-22.051058,-9.224331,3.219842
2078,-17.24567,-3.226123,9.093623
2079,-5.5244293,-1.9157536,20.467607
2080,4.2131624,-4.203292,19.691435
2081,10.817652,-7.7270226,18.515064
2082,10.647463,-8.029117,17.171194
2083,10.918151,-5.8947186,6.6598234
2084,7.7440715,-6.55095,-2.8815567
2085,5.8420763,-5.6503515,-5.4852467
2086,3.1208389,-3.5590246,-4.833801
2087,0.8428718,-1.4126626,-4.34746
2088,-0.5033901,0.23778675,-3.7654054
2089,-0.58983076,1.2439687,-3.458825
2090,-0.9203394,1.5098711,-3.4564323
2091,-1.0713863,1.8044873,-2.2537398
2092,-1.334896,2.449054,0.03379862
2093,0.5192425,2.9183464,0.5799604
2094,-0.53240305,1.5026926,4.4057846
2095,-0.5371887,-4.9028935,5.979365
2096,2.0739791,-7.571489,-3.4013975
2097,4.2634115,-7.978568,-7.4569325
2098,1.6115661,-27.444479,-1.0633105
2099,-3.2177482,-77.65906,27.87429
2100,-10.210175,-77.654274,8.346166
2101,-26.513971,-64.63941,10.190733
2102,-26.156841,-45.08736,3.62722
2103,-17.751154,-30.127432,3.4259238
2104,-4.9519463,-15.304194,0.22313072
2105,0.15044872,-13.521841,-0.07627122
2106,13.213166,-10.194621,-5.981159
2107,13.610674,-7.612167,-6.038886
2108,1.9639091,-3.0463624,-4.6803613
2109,0.39960137,0.3481557,-4.4192443
2110,1.8128623,3.0000014,-5.9117675
2111,3.3556347,6.0972114,-6.8653073
2112,3.6382868,7.826923,-10.221241
2113,2.91715,10.401899,-8.659326
2114,1.1733804,10.109675,-9.517153
2115,0.16480567,10.5792675,-15.972988
2116,-2.0676978,9.838987,-23.882763
2117,-1.4401802,9.843773,-19.178175
2118,-0.42921257,9.530014,-13.203595
2119,0.4235296,6.5955167,-9.543474
2120,-0.15373886,2.1951156,-6.917949
2121,-1.2053844,-0.9837492,-5.265107
2122,-1.5864414,-2.696711,-4.098307
2123,-2.8749764,-4.200899,-2.687439
2124,-4.2837505,-6.58445,-1.058525
2125,-4.9519463,-17.637495,78.709206
2126,-3.9074793,-20.224436,52.571808
2127,4.074379,-18.739391,-4.599005
2128,11.653645,-9.274581,-20.10988
2129,-1.0040882,-5.262116,-8.554042
2130,-2.3383858,-4.1578283,-3.6505501
2131,-4.712365,-12.120544,-3.0610185
2132,-17.111673,-34.353157,-16.617256
2133,-24.367609,-48.33083,-26.707191
2134,-6.899405,-27.798916,-6.62094
2135,1.6357933,-18.104395,-4.4072804
2136,4.733003,-14.408082,-8.362317
2137,1.3384851,-15.9795685,-10.1016
2138,-1.3396816,-18.514166,-10.024731
2139,0.95054877,-18.348763,-13.491034
2140,9.880862,-19.017258,-12.092129
2141,11.78525,-24.112474,-8.863015
2142,16.121344,-27.533014,-11.996416
2143,17.961124,-29.89742,-25.665117
2144,4.9342995,-37.448273,2.2881367
2145,7.6363945,-36.899418,18.328423
2146,1.8846469,-23.135006,58.01219
2147,-8.816056,-13.890934,49.649574
2148,-15.906588,-14.326727,34.071404
2149,-28.372894,-11.301301,4.642674
2150,-13.75544,-4.9316072,11.82204
2151,-3.2991042,-2.9985058,18.117556
2152,4.397709,-3.8656049,15.147165
2153,9.943375,-5.736493,12.152548
2154,11.08834,-5.6838512,12.123834
2155,12.398709,-5.669494,7.9223366
2156,11.835798,-5.35095,1.4111671
2157,9.155238,-4.5795636,-3.4660037
2158,5.9955163,-2.9096723,-2.9605198
2159,3.118446,-1.0172487,-2.2226331
2160,2.021337,0.47736812,-1.8586249
2161,1.396212,1.3806586,-3.039483
2162,0.58893347,1.4093726,-3.1570303
2163,0.03798606,1.5146568,-2.440679
2164,-0.46271208,1.4979069,-0.7088737
2165,-1.0040882,1.7662022,0.4124628
2166,-0.8246265,0.67387867,2.5106692
2167,-0.9299107,-4.3328037,5.148158
2168,1.8080766,-6.8575306,-0.7710871
2169,6.4217377,-7.832606,-6.678368
2170,5.3126645,-16.45873,-3.0753753
2171,0.14087744,-77.65906,23.119154
2172,-4.671687,-77.65906,9.04816
2173,-19.111774,-68.810104,11.1682005
2174,-26.269604,-49.035217,7.0118675
2175,-22.59004,-34.434513,-6.25424
2176,-9.6015,-17.026428,-1.4656038
2177,-9.000303,-13.011571,0.42681974
2178,4.0334015,-9.361021,2.1945174
2179,13.893327,-7.95464,-8.074879
2180,10.546964,-7.3079796,-7.2699933
2181,1.6836498,-4.2921257,-5.9285173
2182,0.34217364,-2.521736,-7.1021967
2183,0.57936215,1.0929217,-6.376573
2184,2.3566313,4.077968,-6.855736
2185,2.0237298,6.339185,-6.6759753
2186,1.218844,9.314362,-9.598509
2187,1.2403795,11.338689,-18.464216
2188,0.26051855,12.433406,-21.67658
2189,-2.053341,13.499408,-18.310776
2190,-2.1804597,13.782061,-13.201202
2191,-1.265205,12.071791,-10.491929
2192,-0.7716853,7.6256266,-9.425926
2193,-0.5347959,3.4501512,-7.550253
2194,-1.1647065,0.77677006,-3.894917
2195,-1.2197413,-1.1012967,-2.3162522
2196,-1.6917256,-2.658426,-1.3076776
2197,-2.1326032,-4.6465626,1.617249
2198,-3.140879,-18.43251,70.075905
2199,-2.0198414,-20.056938,17.944973
2200,6.7764735,-14.927923,-10.216455
2201,1.4823537,-8.050652,-15.625431
2202,-2.7218359,-7.3917284,-3.947559
2203,-4.5975094,-17.412271,-2.80708
2204,-10.847263,-36.47559,-17.469997
2205,-22.165913,-57.682877,-27.943083
2206,-5.241777,-26.431118,-8.034201
2207,2.2992034,-16.063616,-6.1393847
2208,4.093521,-11.327622,-8.180463
2209,0.9242278,-12.594921,-4.733302
2210,-0.82701933,-15.134005,-6.1968126
2211,-0.27846473,-16.113867,-11.469398
2212,1.815255,-17.879171,-10.336395
2213,7.380063,-18.473488,-7.6292157
2214,11.735001,-22.756641,-7.9624166
2215,15.826727,-25.183262,-10.4464655
2216,8.850752,-29.557343,-17.58994
2217,3.4776685,-35.184364,-7.91456
2218,6.014659,-35.366516,11.75504
2219,-1.5382859,-26.625237,55.319668
2220,-10.739586,-15.234802,53.359943
2221,-19.514366,-13.81885,28.916365
2222,-24.417858,-9.70828,3.9720855
2223,-11.326426,-4.7159543,8.1738825
2224,-2.4248266,-2.2797618,16.586748
2225,4.9199424,-0.9693923,17.374884
2226,10.216455,-2.3659034,16.634604
2227,13.124333,-4.5891347,14.124234
2228,13.435998,-5.259723,7.0405817
2229,8.2710905,-5.563911,-0.7040881
2230,6.2638116,-4.502694,-2.6252255
2231,3.3053854,-2.6608188,-2.5148566
2232,1.3169497,-0.71306115,-2.1245275
2233,0.4354937,0.6523433,-2.5316064
2234,0.033200413,1.2296118,-3.255136
2235,-0.12023934,1.3926228,-3.1307094
2236,0.12891331,1.5672989,-1.3220345
2237,0.030807592,1.7183458,-0.1794617
2238,-0.16091733,1.9028922,0.36430725
2239,0.38285163,1.3085749,1.9669002
2240,-0.036490545,-3.2572298,4.470391
2241,0.58654064,-5.302794,1.8041883
2242,5.154738,-7.5116687,-3.7558343
2243,5.0515475,-20.66292,10.459028
2244,-2.556432,-77.65906,17.149658
2245,-7.8720875,-77.65906,4.293023
2246,-18.546469,-65.28398,8.293523
2247,-22.412672,-40.413876,4.0151563
2248,-18.194426,-26.95096,-1.0728818
2249,-9.484252,-13.778172,-1.0226326
2250,-5.869594,-12.175579,4.187739
2251,8.541779,-11.159825,-8.438888
2252,12.173485,-10.668699,-8.240283
2253,3.8874395,-5.6359944,-7.9887376
2254,-1.0977074,-1.8053846,-6.5057855
2255,1.3169497,1.1889337,-6.771688
2256,1.5038891,4.334299,-8.592327
2257,2.3446672,9.930214,-9.790234
2258,2.4358935,12.799807,-11.248959
2259,0.8258229,13.801203,-9.54826
2260,1.1255239,13.286148,-18.1696
2261,1.2427722,12.620345,-20.385353
2262,0.4235296,11.460723,-15.400506
2263,0.33499518,9.276076,-10.281061
2264,0.33499518,9.276076,-10.281061
2265,0.06430711,3.1555347,-5.5597234
2266,-0.6975078,0.3385844,-2.4215364
2267,-0.65682983,-1.4700904,0.119940236
2268,-1.5574285,-2.969792,2.065305
2269,-1.91695,-6.3903317,16.773687
2270,-4.999803,-14.439488,54.83811
2271,-5.040481,-21.314367,40.158443
2272,7.969296,-22.45724,-3.3607194
2273,14.1879425,-8.946465,-24.495924
2274,-1.006481,-7.681559,-16.159628
2275,0.30867413,-3.472883,-6.170491
2276,-6.25753,-12.582957,-8.752945
2277,-20.074884,-36.04907,-21.42025
2278,-26.76073,-52.8751,-27.483362
2279,-3.8117664,-27.79413,-3.147459
2280,0.9026923,-19.191933,0.53688955
2281,1.7937196,-12.762419,2.1538396
2282,0.04995017,-12.716955,-8.302496
2283,-2.2618155,-16.046867,-6.841379
2284,-4.999803,-18.571594,-9.660723
2285,-0.18723837,-21.81028,-8.046165
2286,2.929114,-25.046572,-8.1682
2287,10.23799,-27.662525,-12.700504
2288,15.326029,-30.929924,-21.928125
2289,10.839188,-32.309685,-2.5148566
2290,10.1348,-32.51816,14.735002
2291,9.94816,-26.15086,29.740393
2292,3.6981075,-16.686348,37.461136
2293,-4.0274196,-12.9134655,28.47788
2294,-12.287145,-12.297912,19.600208
2295,-19.962122,-9.131011,8.516355
2296,-20.287846,-4.5269213,9.409775
2297,-6.8132634,-1.7670995,21.955046
2298,1.0510473,-4.215256,20.261524
2299,6.2662044,-6.2084775,18.234804
2300,9.320343,-6.5342007,16.237097
2301,11.71825,-5.7149577,4.185346
2302,9.648459,-6.282655,-2.469393
2303,8.393424,-4.9866424,-4.8936214
2304,4.8912287,-3.0200412,-4.3235316
2305,2.0500507,-1.2903296,-3.636193
2306,0.7181459,0.12053844,-3.1666017
2307,0.38285163,1.1530414,-1.8275183
2308,0.5697909,1.4548361,-1.8610178
2309,0.6152545,1.7901305,-1.9232312
2310,0.62721866,2.0177476,-0.88354975
2311,0.72771716,1.9579271,0.5703891
2312,1.0103694,-2.7038896,3.4953158
2313,1.7745771,-5.382056,1.2125629
2314,5.8396835,-7.0061846,-4.706981
2315,5.2552366,-15.105291,-1.6860427
2316,1.8583258,-72.046394,19.645672
2317,-3.4669008,-77.52237,9.397811
2318,-17.238493,-68.0124,6.8467627
2319,-25.282564,-54.310196,8.511569
2320,-24.70051,-36.418163,1.154836
2321,-14.289638,-19.834106,0.90329057
2322,-7.345068,-12.288341,4.7482576
2323,0.8356933,-12.027224,0.88414794
2324,14.360525,-11.334801,-9.742078
2325,9.133703,-7.952247,-7.279565
2326,0.27008986,-4.162614,-4.970491
2327,-0.1680958,-1.2687942,-4.4024944
2328,2.4598217,1.8020946,-6.8988066
2329,4.3235316,5.311468,-10.908878
2330,4.4264226,8.653344,-9.905089
2331,2.6536403,9.8270235,-11.426327
2332,-0.573081,10.361221,-12.717254
2333,-0.9610174,10.766207,-22.852654
2334,-0.89401835,11.412867,-21.077776
2335,-1.1359925,11.077573,-14.415859
2336,-0.6855437,8.615059,-9.845269
2337,-0.54675996,6.159425,-6.038886
2338,-0.88205427,2.4969103,-4.493721
2339,-1.0642079,-0.92153585,-2.591726
2340,-0.9921241,-2.9865417,-1.2140584
2341,-1.4090735,-4.339982,0.9490533
2342,-1.3875381,-9.964611,78.709206
2343,-5.6204414,-19.256838,57.145092
2344,0.7923234,-26.87439,13.86551
2345,16.073189,-14.547165,-26.40061
2346,-2.0557337,-12.187543,-15.376278
2347,-6.2120667,-18.195621,23.207987
2348,-17.092232,-27.693632,-15.280565
2349,-13.04866,-31.310982,-23.372494
2350,-12.818949,-27.466015,-15.601502
2351,-1.0328021,-13.045071,-7.7946196
2352,3.4872398,-6.6684976,-12.448959
2353,5.506782,-6.895816,-23.108984
2354,1.6091732,-13.006785,-19.439291
2355,-1.698904,-19.175184,-10.326824
2356,-2.9156544,-24.787848,-3.434897
2357,-3.1866415,-27.691238,-3.2216365
2358,4.191627,-27.480371,-10.700404
2359,11.162518,-28.215866,-16.02563
2360,15.381064,-30.218658,-15.405292
2361,9.643674,-33.066715,-12.077772
2362,5.71765,-34.58556,-9.68465
2363,4.792824,-35.31148,15.686149
2364,-3.0523443,-25.621447,67.76892
2365,-11.930016,-13.26551,50.91418
2366,-20.812471,-11.483455,29.668608
2367,-24.76033,-6.852745,4.582854
2368,-12.93859,-2.4188447,4.4967117
2369,0.78753775,-0.7465607,15.642779
2370,8.216056,-2.2845473,12.310774
2371,12.503994,-4.5098724,10.293923
2372,13.04537,-5.4035916,12.116655
2373,12.690933,-5.2405806,7.112665
2374,9.176774,-5.4873405,1.3537394
2375,7.1691957,-5.015356,-1.4344971
2376,4.2203407,-3.2907293,-1.4823537
2377,2.2345972,-1.407877,-1.166202
2378,0.8356933,-0.19800608,-1.2837493
2379,0.17916259,0.7073782,-1.3579268
2380,-0.56590253,1.0833504,-1.6381862
2381,-0.92512506,1.2248261,-0.8883354
2382,-2.0916262,1.6151553,3.1049864
2383,-2.0078773,1.3396816,2.865405
2384,-0.7190432,-2.1457636,1.9621146
2385,0.3397808,-4.996214,2.2351954
2386,2.3255246,-7.1306114,-1.1590235
2387,5.808577,-17.18226,-1.6980067
2388,4.316353,-43.101616,0.73579293
2389,1.5780666,-77.52237,11.676077
2390,-15.123238,-76.49705,-2.9365916
2391,-24.511177,-50.750275,8.497212
2392,-23.119452,-36.250366,6.841977
2393,-20.033907,-25.801208,-2.0117657
2394,-12.816257,-14.726926,-0.65353966
2395,-2.8079774,-11.612667,3.2844481
2396,11.82862,-10.992328,-9.22463
2397,16.609777,-8.740383,-8.944371
2398,6.91765,-4.9052863,-5.4613185
2399,2.0931215,-2.1936202,-5.5716877
2400,2.9506495,-0.67477596,-6.278168
2401,2.6799614,3.1172497,-6.968199
2402,5.858826,8.2914295,-11.13171
2403,5.4038906,11.666805,-11.838191
2404,2.914757,11.863316,-13.39532
2405,0.8859426,12.2584305,-17.896519
2406,-1.0666007,11.851352,-21.262024
2407,-1.3540385,11.274083,-17.56601
2408,-0.9634102,9.455837,-12.015559
2409,-0.7118647,6.4854465,-7.765906
2410,-0.9514461,3.0119655,-5.078168
2411,-1.5693926,0.6260222,-4.0552363
2412,-1.4234303,-1.7886349,-3.3822548
2413,-2.8893332,-3.9852462,-1.7123637
2414,-4.822734,-7.4036922,1.9573289
2415,-5.299205,-17.28276,73.30023
2416,-4.0010986,-22.045074,49.251766
2417,0.8811569,-24.049961,-3.9571304
2418,10.61157,-10.378868,-26.87708
2419,1.6692929,-11.703594,-3.6601214
2420,-8.308179,-20.765812,7.6803627
2421,-13.683656,-35.570206,-19.175781
2422,-16.977375,-39.23272,-25.368107
2423,-9.980165,-23.832214,-9.576974
2424,1.3651053,-11.634203,-5.8686967
2425,5.200202,-8.316554,-12.940085
2426,3.8156548,-10.762318,-14.351253
2427,1.7578273,-15.371194,-10.573285
2428,0.8138588,-19.093828,-9.7348995
2429,0.8883354,-20.713171,-6.4292154
2430,4.9438705,-21.477377,-6.134599
2431,10.707283,-25.29094,-6.73101
2432,16.92623,-27.310482,-11.555539
2433,12.643077,-30.652058,-18.006588
2434,4.2011986,-34.444084,-14.11885
2435,3.472883,-37.72853,8.918648
2436,0.06430711,-33.057144,44.925545
2437,-2.650051,-18.588343,66.53542
2438,-15.841982,-12.829717,34.59842
2439,-21.059233,-11.263016,14.917155
2440,-19.171595,-5.8827543,2.8510482
2441,-9.443574,-1.1970096,12.94547
2442,-1.0953146,-0.39690945,18.428923
2443,5.3365927,-1.910968,17.152052
2444,11.02852,-5.4466624,16.08605
2445,12.092129,-5.7604213,14.574683
2446,10.755439,-5.602495,5.066802
2447,8.520244,-5.4849477,-2.5052853
2448,5.892326,-4.1674,-4.009773
2449,2.536392,-2.6006992,-2.646761
2450,1.1398809,-1.3432708,-2.400001
2451,-0.093918286,0.067896344,-2.9485557
2452,0.02841477,1.3516457,-3.2982068
2453,-0.44835514,1.6561323,-2.888735
2454,-0.56111693,1.8044873,-2.1197417
2455,-0.23748764,1.8068802,-0.07627122
2456,0.9768698,-0.57906306,3.3035908
2457,0.69182485,-3.7145581,4.765007
2458,3.013162,-6.6418777,-0.581755
2459,5.0156555,-13.006785,-2.946163
2460,1.8511474,-40.887955,-1.1709876
2461,-1.265205,-77.65906,19.315163
2462,-11.829517,-72.2453,0.07208378
2463,-25.014269,-56.633625,5.349454
2464,-22.345673,-37.622948,9.026625
2465,-19.69622,-24.75674,-3.0227332
2466,-15.818053,-15.936498,1.9453648
2467,-1.5741782,-10.036395,1.4904294
2468,7.5646095,-10.66152,-0.8596215
2469,15.239589,-10.307083,-3.6505501
2470,13.081263,-7.799106,-6.376573
2471,1.803291,-3.4127634,-5.2866426
2472,0.8644072,-1.0387841,-2.8935208
2473,1.8056837,0.6044868,-5.1882377
2474,4.0528436,4.0420756,-7.353742
2475,4.4192443,7.3573313,-9.152845
2476,3.714857,8.847162,-10.053743
2477,0.3469593,9.221041,-9.864411
2478,-0.47706902,10.176675,-17.714365
2479,-1.4928222,9.724133,-22.452753
2480,-1.2053844,9.850952,-17.790936
2481,-0.11306087,9.041281,-11.493325
2482,0.30867413,5.723632,-7.008877
2483,0.05712864,2.9952157,-6.524928
2484,-0.45792642,-0.87367934,-4.7452664
2485,-0.85094756,-2.2414765,-3.5593238
2486,-2.6258237,-5.235795,2.364707
2487,-1.2939188,-7.5403824,18.596718
2488,-3.1600213,-20.768206,59.403915
2489,-2.4846473,-21.951756,-10.760224
2490,3.8300118,-10.776675,-26.470003
2491,-1.7898313,-12.664313,8.585747
2492,-10.689337,-17.440985,15.381961
2493,-4.92084,-21.422342,-17.474783
2494,-10.049556,-26.893532,-20.981764
2495,-12.981661,-28.32833,-18.47618
2496,-0.093918286,-16.988144,-11.203495
2497,4.6707897,-10.846066,-16.73959
2498,5.0419765,-11.298908,-20.962622
2499,3.106482,-16.271791,-13.615759
2500,1.6621144,-21.378973,-8.103593
2501,-3.0643084,-25.082464,-4.1437707
2502,0.24137598,-25.312475,-7.1168528
2503,6.771688,-25.08725,-8.946764
2504,17.175383,-28.886753,-12.163914
2505,11.485847,-31.61517,-10.745868
2506,6.8075805,-34.04179,-19.961525
2507,8.105986,-36.71278,2.6928227
2508,6.6158557,-34.38187,31.553854
2509,-7.55115,-19.132113,70.11897
2510,-14.380565,-12.973287,39.104404
2511,-22.043879,-9.895219,16.11237
2512,-18.029022,-5.621638,3.2341988
2513,-8.473284,-3.1301112,9.273384
2514,0.27966115,-2.684747,16.960327
2515,5.8947186,-2.8378878,16.059729
2516,8.44128,-4.6345983,15.570994
2517,11.478669,-4.744668,16.411772
2518,11.10509,-4.684848,11.395818
2519,10.031909,-5.2142596,0.35473597
2520,7.279565,-4.5412784,-3.1331022
2521,3.3843486,-3.633202,-2.9653056
2522,0.7827521,-2.4499512,-2.9605198
2523,-0.573081,-1.0124631,-3.1115668
2524,-0.8461619,0.30987054,-3.377469
2525,-0.51086766,1.5672989,-3.801298
2526,-0.898804,2.1927228,-3.595216
2527,-2.4032912,-0.1692922,0.77407813
2528,-1.5119648,-4.0501513,2.8773692
2529,0.19351953,-8.884252,2.824727
2530,6.6038914,-16.104294,-0.8955139
2531,9.490533,-27.192934,-2.23699
2532,6.48425,-50.6402,-16.57897
2533,-2.1661026,-71.49066,15.889539
2534,-19.74647,-58.758453,10.514063
2535,-30.89523,-47.336613,2.1562324
2536,-25.73062,-33.936207,-0.37328035
2537,-21.26292,-24.361626,-3.731906
2538,-10.068699,-15.577275,-3.0634112
2539,0.2533401,-10.398011,1.7874385
2540,8.678469,-10.905888,0.09122636
2541,14.765511,-9.727423,-8.59472
2542,8.491529,-4.1793637,-6.448358
2543,3.4657044,-1.6713866,-3.8108692
2544,1.4967105,1.6103697,-3.3726835
2545,1.8726828,3.6107693,-3.8084764
2546,2.4332016,8.356335,-7.279565
2547,3.5736806,10.497911,-8.522935
2548,2.9796624,11.146964,-11.282458
2549,2.71376,9.137292,-20.28007
2550,-0.3382853,10.394721,-17.443678
2551,-1.3851452,10.267901,-14.830116
2552,-1.5382859,8.787342,-11.359028
2553,-1.061815,5.7954164,-10.405787
2554,-1.0474582,1.8427725,-7.9767733
2555,-0.8605189,-0.4112664,-5.7631135
2556,-0.8676973,-2.2175484,-3.3583267
2557,-2.0150557,-3.0056844,-0.8285148
2558,-3.3732817,-4.9938207,0.6134599
2559,-5.5387864,-15.950855,78.709206
2560,1.0773684,-20.95993,36.840794
2561,5.4517474,-13.26551,-38.830727
2562,3.1782668,-10.489237,-9.495318
2563,-0.22313072,-13.69203,7.131808
2564,-7.5463643,-21.491735,10.17159
2565,-10.545468,-29.830423,-25.43032
2566,-19.001703,-38.49244,-27.986454
2567,-5.8453665,-24.981966,-6.9323063
2568,2.0021944,-16.85893,-2.670689
2569,5.3967123,-12.544373,-7.6390862
2570,2.5746772,-13.6657095,-11.363813
2571,0.81864446,-16.520945,-12.827623
2572,1.0271192,-18.89971,-11.512468
2573,2.8980074,-20.21965,-9.993624
2574,10.839188,-21.640089,-8.946764
2575,21.645174,-26.342585,-8.958728
2576,17.731115,-28.34777,-10.111171
2577,8.453244,-32.132618,-31.019056
2578,3.3317065,-40.651066,-2.0647068
2579,4.7138605,-38.298622,33.053555
2580,-0.65682983,-28.160831,76.637024
2581,-11.680862,-12.268899,51.709496
2582,-15.444175,-13.013964,45.79743
2583,-17.080267,-8.026724,6.8635125
2584,-3.5291142,-4.625027,7.4647093
2585,2.6225336,-2.926721,14.258232
2586,8.275876,-1.992324,12.883256
2587,9.01137,-1.9205393,9.752248
2588,12.171092,-2.167299,6.0514483
2589,10.106087,-3.712165,0.78364944
2590,8.302197,-3.7459638,-1.2239288
2591,5.279165,-3.1926236,-1.1614163
2592,2.929114,-1.7670995,-2.0093727
2593,1.1159526,-0.3275176,-3.379862
2594,0.4642076,0.6906284,-3.638586
2595,-0.19441684,1.2990036,-3.7701912
2596,-0.7815557,1.4644074,-2.8313074
2597,-0.93230355,1.6441683,-1.2646067
2598,-0.8916255,1.9746768,0.32841492
2599,-0.6879365,1.1673983,3.789932
2600,-0.6329016,-2.5552354,5.44756
2601,0.0017946169,-4.790132,5.0859447
2602,2.8453653,-7.9307117,-2.074278
2603,5.6407804,-26.114967,-1.1805589
2604,4.4599223,-77.65906,26.228626
2605,3.2671003,-77.65906,13.561322
2606,-18.690039,-72.7122,-0.9170493
2607,-27.809982,-48.107998,6.9687967
2608,-21.725334,-31.363625,5.651249
2609,-13.475181,-19.302301,-2.548356
2610,-6.9762745,-11.897713,-1.302892
2611,5.4684973,-7.394121,2.6090739
2612,13.93879,-10.201799,-7.478468
2613,14.671891,-7.899605,-8.36471
2614,2.0428724,-3.388835,-6.613762
2615,0.9290134,0.71694946,-6.268597
2616,0.44745782,3.019144,-7.1048884
2617,1.43689,6.19083,-7.3609204
2618,0.98644114,10.059426,-10.1016
2619,0.770788,12.361621,-9.327821
2620,1.1303096,12.251252,-10.906486
2621,-0.36460635,10.07139,-20.6034
2622,-1.6271194,9.031709,-18.677477
2623,-0.64247286,9.060423,-14.176278
2624,0.07627122,7.6519475,-9.790234
2625,0.4235296,5.5199428,-8.178069
2626,0.12173485,1.4883357,-6.381359
2627,0.22462623,-0.89282197,-4.3666024
2628,-1.5646069,-2.3659034,-2.670689
2629,-2.8223343,-3.242873,-0.77347994
2630,-4.3411784,-5.0536413,0.8171489
2631,-3.3182468,-16.643278,78.709206
2632,1.4679967,-19.295124,46.13033
2633,2.8166513,-15.421443,-19.362421
2634,8.9013,-6.0191455,-21.13999
2635,-0.24496523,-6.2491555,-2.0240288
2636,-2.8175488,-9.344272,-1.7003996
2637,-9.206385,-23.772095,-8.774481
2638,-15.1040945,-39.16572,-23.657537
2639,-19.681864,-47.420662,-16.797016
2640,-0.43639103,-25.094429,0.33080772
2641,5.2959146,-15.766607,-4.9319067
2642,2.9892337,-14.247764,-5.983552
2643,0.52163535,-15.613168,-11.344671
2644,0.552742,-16.511374,-14.883058
2645,7.54786,-15.792929,-16.902302
2646,10.994721,-20.68685,-8.906086
2647,12.889836,-25.516163,-7.394719
2648,12.297912,-26.778677,-11.617752
2649,9.562318,-30.616165,-10.856236
2650,7.5116687,-35.313873,8.875577
2651,9.8066845,-32.290543,32.80919
2652,2.4332016,-21.345474,50.58846
2653,-9.04816,-15.986747,41.842392
2654,-16.773687,-14.1688,22.987549
2655,-22.8703,-11.17179,5.282455
2656,-18.017057,-7.1617184,7.6011004
2657,-4.3244286,-3.362514,17.961723
2658,2.6512475,-4.258626,16.306488
2659,6.7525454,-4.5245285,15.02244
2660,8.548957,-4.84068,13.070195
2661,10.28824,-4.9028935,6.70768
2662,9.238987,-5.1999025,0.24945176
2663,7.543074,-3.906283,-2.9270203
2664,5.2552366,-2.9219356,-4.0384865
2665,2.7999015,-1.5634105,-3.4229329
2666,1.2523435,-0.025722843,-3.2096725
2667,0.7683952,0.94695956,-3.5234313
2668,0.35413775,1.3588241,-3.3556347
2669,-0.026919255,1.4835501,-2.2465613
2670,-0.048454657,1.7398812,-0.92662054
2671,0.104985096,1.9579271,-0.37088752
2672,1.3770695,1.7446668,0.45553362
2673,0.35653058,-3.1683962,3.2940195
2674,1.6692929,-4.3471603,-0.12891331
2675,2.91715,-5.211867,-4.215854
2676,2.0524435,-16.66242,-2.2585254
2677,1.1039885,-76.844604,21.28685
2678,-5.807081,-76.82307,8.298309
2679,-19.231415,-65.76045,8.030014
2680,-24.626333,-53.349476,11.759826
2681,-16.333109,-31.581669,7.8840513
2682,-7.194021,-16.86611,3.6080775
2683,-2.1708884,-12.544373,5.131408
2684,7.2385874,-11.420942,-2.6611178
2685,14.113766,-10.992328,-9.876375
2686,6.7908306,-8.519944,-6.316753
2687,-1.3803595,-2.414059,-4.723731
2688,-2.0294127,0.52522457,-4.666004
2689,-1.061815,2.8513472,-6.623333
2690,1.7362919,4.408477,-9.897911
2691,0.01375873,6.2841506,-7.7706914
2692,-0.17288144,7.129714,-6.8389864
2693,-2.9156544,8.375478,-5.660222
2694,-2.7385855,8.502297,-19.903797
2695,-1.7347964,8.823235,-21.870699
2696,-1.3133606,9.378967,-15.460326
2697,-1.0351949,8.837591,-11.313564
2698,-0.44835514,5.991927,-7.864012
2699,-0.6759724,3.0358937,-4.8266225
2700,-0.6735796,0.8991031,-2.85045
2701,-2.4918256,-2.629413,-1.166202
2702,-2.9183464,-4.05733,-0.4764708
2703,3.6526437,-9.41127,75.48488
2704,1.2906287,-14.408082,51.4747
2705,1.1446666,-21.26651,12.037692
2706,8.644969,-17.28276,-13.951054
2707,1.2619148,-15.845571,-9.9960165
2708,-6.6239314,-25.001108,-7.4641113
2709,-11.941979,-34.90171,-10.8200445
2710,-17.094624,-39.740597,-17.815163
2711,-8.308179,-20.938395,-6.4531436
2712,-1.7036897,-13.176975,-5.0015974
2713,1.6980067,-10.565807,-6.7501526
2714,2.440679,-11.780464,-13.148561
2715,2.0739791,-15.198611,-13.421641
2716,0.0065802624,-17.057535,-14.832509
2717,2.716153,-18.463917,-6.910771
2718,5.264808,-19.16322,-7.708478
2719,11.464313,-21.872492,-9.667901
2720,17.37877,-25.96422,-13.086347
2721,13.555639,-28.6711,-14.041981
2722,3.4369907,-31.466515,-16.104593
2723,0.99601245,-36.367615,-1.8801605
2724,-3.6990047,-33.643982,47.361736
2725,-11.599507,-20.777777,78.572815
2726,-19.10938,-14.410476,42.848576
2727,-27.500711,-11.5265255,14.011472
2728,-16.19881,-5.9784675,3.7971103
2729,-3.600899,-4.0310087,12.991232
2730,2.1050856,-2.4762723,17.14248
2731,9.279665,-3.10379,16.016657
2732,11.672787,-4.2056847,12.301202
2733,13.871791,-4.7542396,8.87797
2734,11.150554,-5.317151,0.9200403
2735,8.146664,-4.49073,-2.1556342
2736,4.234698,-2.969792,-2.6036901
2737,2.018944,-1.8388842,-2.1532412
2738,0.34456646,-0.26769704,-2.728117
2739,0.07627122,0.76959157,-3.9260237
2740,-0.26171497,1.2966107,-3.8706896
2741,-1.1527423,1.6824534,-2.970091
2742,-1.4473586,1.931606,-1.4994025
2743,-1.3875381,2.1230319,0.07686943
2744,-0.90358967,1.0187442,2.9108686
2745,-1.5430715,-5.118547,3.6343985
2746,1.0103694,-6.975078,-1.7027924
2747,6.1510496,-8.496016,-6.501
2748,8.443673,-33.730423,-5.159524
2749,1.6908283,-77.65906,31.759935
2750,-9.996914,-77.65906,15.321841
2751,-28.851759,-62.69913,11.534601
2752,-27.100811,-37.064823,8.930613
2753,-22.731516,-27.686453,-5.6171513
2754,-9.802796,-13.150654,-3.7941194
2755,-5.306383,-9.097511,0.7692925
2756,5.1738806,-8.306983,-2.5989046
2757,12.429816,-9.564411,-7.8664045
2758,11.25823,-6.32094,-6.687939
2759,1.6334006,-2.3228326,-6.0891356
2760,-1.1240284,0.67148584,-5.035097
2761,0.4546363,2.7003005,-5.676972
2762,1.2882359,5.1942196,-6.4124656
2763,1.0941181,8.42812,-7.7300134
2764,1.5732809,10.509875,-8.489435
2765,2.181955,10.315758,-11.284851
2766,1.4177474,9.549157,-19.57329
2767,0.43788654,9.455837,-16.751553
2768,0.37088752,8.808877,-12.405889
2769,0.8811569,6.890133,-8.827123
2770,0.6583253,3.804887,-7.856833
2771,0.7755736,1.2607185,-5.391927
2772,0.6942177,-0.24376881,-4.086343
2773,-1.006481,-2.0784655,-1.2693924
2774,-1.8619151,-3.3768709,0.73340017
2775,-2.5229323,-5.0946183,7.6106715
2776,-1.7252251,-18.018253,72.250984
2777,1.1638091,-22.44019,-17.24956
2778,13.713864,-11.734701,-27.107092
2779,1.966302,-14.290834,-0.5171488
2780,-7.218249,-21.503698,-8.098807
2781,-12.87877,-29.550163,-19.851156
2782,-17.523537,-36.257545,-21.573689
2783,-9.769297,-22.114468,-8.132307
2784,-1.061815,-11.943176,-2.3856442
2785,-0.07956135,-10.434202,-3.065804
2786,0.50009996,-11.167005,-10.369895
2787,-0.22073789,-15.527026,-5.22413
2788,-0.5132605,-19.264017,-9.265608
2789,0.8811569,-20.962322,-10.616655
2790,6.048158,-22.421047,-9.51476
2791,15.165411,-27.806395,-8.695218
2792,19.242481,-31.74438,-11.802299
2793,12.719647,-32.956646,-19.594824
2794,3.2671003,-34.93521,-5.859125
2795,3.880261,-35.74488,8.063513
2796,2.239383,-27.20729,47.903114
2797,-3.1313076,-17.234903,65.996445
2798,-14.289638,-12.182757,37.774895
2799,-19.240986,-11.622239,19.775183
2800,-22.544577,-8.246863,3.897908
2801,-9.378967,-3.1636107,6.8635125
2802,-2.2139592,-0.12622139,15.489638
2803,1.9280169,-0.0041874396,17.57618
2804,5.8277197,-2.1385853,14.184054
2805,12.012867,-4.016652,10.487741
2806,12.681362,-4.4668016,6.096912
2807,9.260523,-5.3051867,0.09122636
2808,6.27099,-4.584349,-2.3449662
2809,2.7014968,-3.4657044,-2.0021944
2810,1.1757733,-1.9133608,-2.076671
2811,0.29671,-0.41365921,-2.9222345
2812,-0.048454657,0.75523466,-2.9940193
2813,-0.19441684,1.3734802,-2.6970103
2814,-0.21834506,1.442872,-2.716153
2815,-0.22552353,1.5146568,-1.4344971
2816,0.71336025,-0.29641092,1.0782657
2817,1.0510473,-3.7483566,2.9156544
2818,1.9830518,-7.4324064,1.1333007
2819,5.561817,-16.166508,-0.19860429
2820,6.7429743,-38.20261,-2.2274187
2821,2.8501508,-77.58727,7.481459
2822,-10.576575,-67.88049,-0.36370903
2823,-24.501606,-52.309795,5.1625147
2824,-25.316063,-37.05286,3.9098723
2825,-19.126131,-25.599913,0.51056856
2826,-8.748757,-14.980865,1.7081763
2827,-1.1455638,-10.695319,4.2332025
2828,3.7773697,-12.348162,0.3068795
2829,15.718751,-10.165907,-6.7908306
2830,11.859726,-7.365407,-6.25424
2831,1.8391833,-3.283551,-4.9079785
2832,-0.11545369,0.6044868,-4.150949
2833,0.8282157,1.9770697,-4.642076
2834,1.2930216,4.3390846,-5.5070815
2835,2.2345972,7.283154,-7.2699933
2836,1.9974087,9.383753,-8.834301
2837,1.6334006,8.830413,-11.838191
2838,0.8500503,7.874779,-19.35285
2839,-0.8006983,8.420941,-17.58276
2840,-1.3564314,9.244969,-12.727124
2841,-0.77677006,8.083254,-9.775578
2842,-0.3909274,5.4003015,-7.600502
2843,-0.4124628,3.0239296,-6.031409
2844,-0.587438,-0.064008005,-4.3737807
2845,-2.0868404,-1.2855439,-2.0264218
2846,-3.222534,-2.373082,-0.23928227
2847,-4.4464626,-3.1540394,2.4867408
2848,-6.324529,-13.447663,74.562744
2849,-1.3875381,-20.401804,53.812786
2850,5.3653064,-20.55973,-29.835506
2851,15.179768,-8.685348,-29.083563
2852,-2.2402802,-15.354444,4.6259246
2853,-9.367003,-19.23261,-0.26081768
2854,-9.201599,-27.185755,-16.27239
2855,-14.689538,-36.544983,-21.135204
2856,-9.304491,-25.753351,-9.490533
2857,1.3504493,-12.345768,-7.0208406
2858,3.2479577,-8.589635,-10.202099
2859,3.51386,-10.280763,-13.079168
2860,0.97926265,-15.17229,-6.8315086
2861,0.77318084,-19.22304,-11.282458
2862,0.011365907,-23.31716,-7.516753
2863,4.7545385,-24.94368,-6.309574
2864,11.780464,-28.242188,-6.798009
2865,18.471096,-29.902206,-11.816655
2866,15.177375,-32.78406,-28.642685
2867,5.595317,-38.581276,-3.3221352
2868,6.244669,-37.11268,18.591932
2869,2.2968106,-24.545874,56.965332
2870,-3.05713,-14.199907,58.63253
2871,-8.902198,-10.936995,22.970798
2872,-17.104494,-12.7648115,8.681459
2873,-18.970299,-8.268398,0.8673982
2874,-9.208778,-2.955435,10.293923
2875,-2.405684,0.5204389,20.29024
2876,2.3566313,-0.9000004,18.651752
2877,8.886943,-4.546064,17.944973
2878,10.700105,-6.2228346,18.050257
2879,10.537393,-5.415556,11.072188
2880,8.417352,-5.7149577,2.184946
2881,6.5033927,-5.1999025,-1.8969102
2882,5.6793647,-4.4261236,-3.0227332
2883,1.2164512,-2.4690938,-2.725724
2884,-0.39810586,-1.1180464,-1.8969102
2885,-0.8341978,0.21385853,-2.2752752
2886,-0.8676973,1.1267203,-2.2585254
2887,-1.5693926,1.5361922,-2.0982063
2888,-1.8113668,1.9004993,-1.9639091
2889,-0.06520442,1.0211371,-0.3900301
2890,0.8282157,-3.2356944,2.6138597
2891,1.5134603,-5.465805,3.1337004
2892,5.729614,-11.06172,-0.22731815
2893,8.453244,-25.94029,-0.02841477
2894,10.879866,-60.837814,15.070296
2895,0.23419751,-72.59973,3.6080775
2896,-15.01556,-59.985073,-1.1757733
2897,-21.255743,-43.67649,4.362415
2898,-21.42354,-34.20211,-4.685147
2899,-18.486649,-24.588945,-3.5784662
2900,-13.113565,-14.005789,2.6832514
2901,-6.774978,-11.052149,0.64935225
2902,0.2653042,-9.815957,2.225624
2903,12.628719,-9.638887,-5.4999027
2904,8.616255,-7.2505517,-6.88445
2905,2.524428,-4.7638106,-5.562116
2906,-0.2760719,-1.3360924,-4.5320063
2907,-0.84137625,0.73130643,-5.6123657
2908,0.5841478,3.1794631,-5.6386867
2909,0.5024927,4.662415,-5.135596
2910,0.9840483,8.466405,-8.400602
2911,2.1963122,8.5118685,-13.831412
2912,2.0787647,8.655737,-17.156239
2913,0.5479564,8.94796,-14.760725
2914,-0.27367908,9.316754,-10.2571335
2915,-0.04127619,8.219645,-8.692825
2916,0.41635114,5.445765,-6.443572
2917,0.1911267,2.5519454,-4.4410787
2918,-0.4651049,0.4103691,-2.7065816
2919,-0.9275179,-1.1515459,-0.27038896
2920,0.8258229,-3.226123,16.11237
2921,-4.928018,-14.920745,78.709206
2922,-2.3024936,-26.879175,51.910793
2923,12.463316,-19.690239,-31.0382
2924,3.1639097,-19.084255,-21.310179
2925,-5.5651073,-17.60609,-10.599905
2926,-10.07827,-19.613668,-12.904194
2927,-13.159029,-26.086254,-14.537893
2928,-13.333705,-26.512774,-12.2838545
2929,-5.5459647,-15.610775,-6.014659
2930,0.26051855,-8.381161,-9.354142
2931,0.88354975,-7.1808605,-12.279069
2932,0.7109674,-9.988539,-16.622042
2933,0.20548365,-13.749458,-12.971192
2934,-2.664408,-22.069004,-4.6899323
2935,-1.8762721,-26.72095,-7.5693955
2936,-0.86291164,-29.609983,-6.8868427
2937,4.8215375,-30.742985,-11.58186
2938,15.556039,-31.881071,-13.155739
2939,13.864613,-33.917065,-11.797513
2940,7.899904,-35.447872,-23.98356
2941,5.767899,-37.02654,5.1529436
2942,1.9136599,-30.125038,55.113586
2943,-0.8030911,-14.18555,73.848785
2944,-4.132704,-8.884252,45.088554
2945,-14.158032,-10.556236,19.993229
2946,-9.671191,-5.7412786,2.0676978
2947,0.44027936,-0.91435736,9.675677
2948,3.8898323,0.95653087,12.91197
2949,7.346564,-0.33708888,10.567004
2950,9.277272,-1.9899311,14.164912
2951,8.915657,-3.58056,12.351451
2952,8.005188,-4.258626,6.0921264
2953,6.7908306,-4.4596233,1.0160524
2954,5.319843,-3.8488553,-2.0862422
2955,3.0849466,-2.8091738,-2.6084757
2956,1.2379866,-1.5466608,-2.2417758
2957,0.30388847,-0.15493527,-2.5558336
2958,-0.2952145,0.8321041,-2.498107
2959,-0.64247286,1.2367902,-2.1197417
2960,-0.9849456,1.4883357,-1.6262221
2961,-0.82941216,1.6031911,-0.27756742
2962,0.56500524,-0.43040898,2.0724835
2963,0.52163535,-3.091826,3.219842
2964,2.1649063,-6.771389,0.0840479
2965,5.918946,-17.146368,-1.0776675
2966,7.138089,-38.81607,-1.2382857
2967,6.04098,-61.621166,0.6134599
2968,-1.7371893,-65.4108,11.414961
2969,-18.24946,-50.173004,-1.9423738
2970,-22.894228,-41.618664,1.6555341
2971,-22.39353,-32.757744,2.1370897
2972,-19.74647,-22.763819,-3.4157543
2973,-15.844375,-15.138791,1.7970098
2974,-3.600899,-10.10818,1.3800604
2975,6.4121666,-9.576375,2.3072793
2976,13.778471,-10.589736,-4.886443
2977,9.804292,-8.127222,-5.8280187
2978,3.132803,-5.0536413,-4.9462633
2979,-0.37657046,-2.0258234,-3.7773697
2980,0.1911267,0.014955142,-4.486542
2981,1.5565311,2.19033,-5.51426
2982,1.4799608,5.0192447,-6.323931
2983,1.0630114,6.9595246,-6.788438
2984,-0.2015953,9.019745,-7.3923264
2985,-0.07956135,8.682058,-19.252352
2986,-1.5622141,9.216255,-18.33949
2987,-1.2532408,9.632906,-14.846867
2988,-1.454537,9.549157,-12.494721
2989,-1.454537,9.549157,-12.494721
2990,-1.2125629,9.137292,-10.585548
2991,-0.6759724,0.9876375,-4.6564326
2992,-1.8571295,-0.45194438,-2.469393
2993,-1.8882362,-1.0148559,-0.46929234
2994,-2.149353,-2.2007985,3.1265218
2995,-7.4937224,-14.5615225,77.20263
2996,-6.6888366,-21.228226,29.647072
2997,9.926326,-8.330911,-29.57439
2998,5.710471,-9.416057,3.8066816
2999,-2.8366911,-17.270796,12.866507
3000,-4.813163,-24.157938,-20.387747
