,ax,ay,az
501,-16.965412,-37.311584,-14.648262
502,-1.6486548,-21.46302,-6.2350974
503,2.716153,-15.570097,-15.304494
504,4.6779685,-15.34248,-25.598118
505,5.5713882,-19.92982,-12.856337
506,3.865904,-25.099215,-10.683654
507,7.590931,-28.060034,-12.065808
508,19.362421,-31.617561,-11.670693
509,23.46342,-32.58516,-12.980763
510,12.08495,-37.543987,-22.697119
511,5.889933,-42.25336,1.5933207
512,5.628816,-37.246975,32.69882
513,-2.4032912,-24.189045,73.978
514,-14.0907345,-15.780965,53.546883
515,-20.611475,-14.968901,36.43342
516,-24.537498,-8.481659,9.2997055
517,-14.991632,-3.8751762,7.3136625
518,-5.131707,-2.155335,17.854046
519,-0.17527425,-2.6389842,20.92972
520,4.531707,-3.242873,16.553247
521,11.48824,-2.87378,9.536894
522,14.041981,-3.9828532,3.3397822
523,12.530314,-4.47398,-2.4909284
524,7.643573,-4.802395,-3.7534413
525,3.9759738,-4.596313,-1.9567307
526,1.4153546,-3.0152557,-1.192523
527,0.31106696,-1.1515459,-1.6070795
528,0.11694921,0.41515473,-1.8729819
529,-0.4124628,1.3950156,-2.5701907
530,-1.1503495,1.6127625,-2.6635108
531,-1.4880366,1.2678969,-0.2009971
532,-1.7659031,0.96849495,1.4231312
533,-1.2293127,-1.096511,3.7325041
534,-0.54675996,-4.751847,4.8008995
535,0.84765744,-6.608378,3.2365918
536,3.525824,-15.371194,7.943872
537,3.772285,-58.89275,22.065115
538,-3.9649072,-77.56065,-1.1446666
539,-19.80659,-71.045,8.132905
540,-26.533113,-57.503117,3.9361932
541,-14.804693,-30.525238,0.5297111
542,-5.907879,-19.45305,9.402596
543,0.01375873,-16.085152,5.0548377
544,20.351555,-13.816457,-9.480962
545,13.59871,-13.236795,-9.1719885
546,2.0093727,-7.003792,-4.503292
547,0.933799,-1.5418751,-6.4411793
548,3.173481,0.78873414,-7.3609204
549,2.565106,5.5079784,-10.005588
550,1.5661024,8.128717,-9.25125
551,0.20787647,10.171889,-12.908979
552,-3.572185,11.618949,-13.469498
553,-4.008277,12.246467,-19.237995
554,-3.493222,12.60838,-20.42364
555,-3.246462,10.957632,-18.198313
556,-1.9887347,7.989635,-15.086448
557,-0.50817573,4.8732824,-11.210673
558,-1.0713863,2.1230319,-6.48425
559,-1.3564314,0.2425724,-4.4264226
560,-2.1254246,-2.356332,-2.8022945
561,-3.2201412,-4.665705,0.062512495
562,-3.423531,-5.2645087,1.5335002
563,5.480461,-8.82443,75.11848
564,-4.8323054,-19.754845,5.3327045
565,3.5039897,-9.293723,-40.905304
566,1.2786646,-8.682955,-2.1005993
567,0.5383851,-12.6116705,20.191833
568,0.6008976,-12.199507,-13.740186
569,-5.311169,-18.241085,-6.7381887
570,-19.919052,-39.764526,-13.402499
571,-15.128023,-41.89414,-13.443176
572,2.4188447,-26.711378,-14.257634
573,6.6038914,-19.740488,-22.622643
574,8.82443,-18.497416,-16.883158
575,9.227023,-20.222044,-14.732011
576,14.973686,-21.966112,-13.282858
577,16.693827,-26.639593,-10.67169
578,18.468702,-27.293732,-13.385749
579,6.278168,-33.41158,-14.875879
580,1.3914263,-39.35266,2.2881367
581,2.181955,-37.266117,37.83232
582,-4.7506504,-29.22444,66.602425
583,-15.1040945,-22.284657,49.1082
584,-21.461824,-18.595522,28.142586
585,-26.707788,-11.904891,12.799507
586,-17.291134,-5.020142,9.843474
587,-6.6598234,-1.6498512,14.564813
588,-1.5526428,-2.9673991,18.007187
589,5.10419,-2.6799614,17.010876
590,8.62822,-3.132504,14.974584
591,12.885051,-3.6858442,7.998907
592,13.277773,-4.2945185,0.40528435
593,9.816256,-4.9698925,-2.8576283
594,4.6971107,-5.2405806,-1.5783657
595,2.059622,-3.8608193,-1.4874383
596,0.20787647,-1.910968,-1.8418752
597,-0.20398813,-0.5069793,-2.4717858
598,-0.13938192,1.0857433,-3.4205399
599,-1.3106686,1.7039888,-3.6167514
600,-2.1158533,1.7877376,-2.1532412
601,-1.3444673,1.1123635,0.2111666
602,-2.1278176,0.0077766734,2.2929223
603,-1.3133606,-3.9421754,4.2667017
604,-0.091525465,-5.226224,3.5886357
605,0.41156548,-9.435199,1.9405792
606,-0.47946185,-31.509586,4.9495535
607,-11.036595,-77.65906,14.737394
608,-22.602005,-77.65906,-6.5608206
609,-23.36382,-52.889458,6.235696
610,-8.538189,-29.691639,3.0690942
611,-2.975774,-19.635204,2.1394825
612,-1.3540385,-12.889538,9.819546
613,8.525029,-12.491731,4.944768
614,17.596817,-13.917254,-10.733903
615,10.597214,-10.716854,-5.1332026
616,2.0021944,-4.4404807,-2.3306093
617,1.9040886,-1.7551354,-3.8874395
618,3.3173494,0.6092725,-7.4808607
619,3.2309089,3.9269211,-10.427323
620,2.126621,7.580163,-8.73141
621,-0.19920248,8.926425,-9.655936
622,-2.105983,8.739486,-11.692228
623,-2.4415765,9.273684,-21.72683
624,-2.606681,9.561121,-19.204496
625,-1.9743778,9.28804,-15.819549
626,-0.817448,8.109575,-12.04188
627,-0.06999006,5.6614184,-8.122736
628,-0.4244269,2.3338995,-5.890232
629,-1.3660027,-0.4447659,-4.179962
630,-2.556432,-2.6078775,-1.451247
631,-3.5410783,-3.8081772,0.6687939
632,2.6009982,-4.323232,58.587067
633,-3.1265218,-16.430017,55.43931
634,-9.805189,-14.103895,-41.247776
635,3.4896326,-11.849856,5.421239
636,-3.6224344,-13.346866,16.08605
637,-0.13220344,-12.000604,-10.7482605
638,-2.6620152,-14.317155,-12.6574335
639,-11.973086,-25.247868,-18.310776
640,-13.724334,-31.241291,-19.95674
641,-1.6558332,-25.226334,-19.371992
642,6.5943203,-20.871395,-17.561224
643,7.0639114,-19.28316,-16.823338
644,6.5871415,-21.13969,-8.8701935
645,5.0515475,-23.808287,-10.702797
646,13.320844,-24.77349,-12.729517
647,26.081766,-28.668707,-12.243176
648,23.784357,-30.44119,-12.830016
649,6.321239,-37.874493,-21.520748
650,4.3522453,-44.457447,-0.06669993
651,-1.3755739,-42.21268,50.799324
652,-11.733505,-27.056543,78.50313
653,-18.668503,-20.380268,47.17719
654,-27.90091,-13.406985,18.107985
655,-15.609578,-6.2180486,7.562815
656,-10.960025,-2.929114,4.913362
657,-4.0537405,-0.9287143,14.255839
658,2.1242282,-0.49501517,13.97558
659,6.131907,-0.94307125,10.940583
660,10.295419,-1.2520444,7.958229
661,12.281162,-2.8163524,3.871587
662,12.326626,-3.0894332,0.80518484
663,8.786145,-3.501597,0.2973082
664,4.368995,-3.5231323,0.66400826
665,1.1877373,-2.7014968,-0.5171488
666,0.19351953,-1.2759727,-2.2704897
667,-0.17766708,0.19950159,-3.3269207
668,-0.73100734,1.157827,-3.4971104
669,-1.7994026,1.7494525,-3.1809585
670,-2.5516462,1.3396816,-0.60329044
671,-3.1169505,-2.05693,2.5178475
672,-1.5502499,-5.2238307,4.3504505
673,-1.0232308,-7.583453,5.0596237
674,2.035694,-18.2363,4.41057
675,2.8932216,-36.803707,0.625424
676,-4.0298123,-77.65906,6.1902323
677,-14.723337,-69.71788,-3.6409788
678,-22.40071,-47.451767,5.9004016
679,-18.920048,-32.731422,5.8094745
680,-9.369396,-22.658236,-4.644469
681,-4.8490553,-14.951852,3.5264223
682,0.100199446,-12.317055,6.8635125
683,13.399807,-13.735101,-4.4144588
684,14.485251,-12.343375,-6.9418774
685,3.932903,-7.2026954,-4.896014
686,-2.2331018,-3.173182,-3.583252
687,1.3480564,-0.50458646,-4.4817567
688,2.0141585,2.079961,-6.2997036
689,2.9940193,5.0120664,-6.1992054
690,1.9567307,6.027819,-5.918946
691,0.7013961,8.090432,-8.815159
692,1.0103694,8.277073,-19.144375
693,0.24137598,9.508479,-17.551653
694,-0.99930257,9.707382,-14.078172
695,-0.79830545,8.971889,-10.733903
696,-0.36460635,7.9633136,-7.7012997
697,-0.12263216,5.622834,-6.6329045
698,0.2844468,1.9555343,-5.4684973
699,-0.51565325,0.17796618,-3.6047873
700,-1.7324036,-1.2927225,-0.25124636
701,-2.4894328,-2.3682961,1.5478572
702,1.8511474,-4.313661,59.708103
703,-0.19441684,-13.222439,52.550274
704,-5.5746784,-15.105291,-20.117058
705,6.0050874,-5.563911,-17.321644
706,-1.5287145,-10.561022,3.39721
707,-11.851052,-20.190937,12.545569
708,-6.5401826,-22.40669,-16.531115
709,-19.061523,-42.078682,-21.307787
710,-14.121841,-39.781273,-11.018949
711,1.5230316,-22.169502,-6.055636
712,3.3101711,-16.581064,-10.163814
713,3.595216,-15.212968,-15.448362
714,2.1771696,-18.341583,-17.424534
715,3.702893,-20.344376,-14.698511
716,5.4613185,-22.739891,-8.242676
717,6.5488563,-25.389044,-4.4482574
718,11.533704,-27.320053,-5.904589
719,15.227624,-27.298517,-8.36471
720,11.150554,-30.331121,-19.532612
721,6.812366,-36.15226,3.4881372
722,4.84068,-32.106297,34.972298
723,0.38285163,-21.323938,61.08308
724,-10.380065,-12.709777,45.51956
725,-16.167704,-10.8867445,24.477678
726,-21.684656,-8.587242,4.8511486
727,-10.840085,-4.0405803,7.2299137
728,-3.751946,-1.6737795,17.010876
729,1.4967105,-1.7431713,18.474386
730,8.105986,-2.8474588,15.436996
731,12.638291,-3.7866418,11.364711
732,11.775679,-4.153043,6.0394845
733,8.985049,-4.39741,-0.06909275
734,6.7932234,-4.0645084,-2.0021944
735,4.026223,-3.554239,-1.3986049
736,1.3480564,-2.5671997,-1.2502499
737,0.9290134,-0.9669995,-2.6252255
738,0.1480559,0.6044868,-3.5353954
739,-0.05802595,1.2415758,-3.3436706
740,-0.34307095,1.6417755,-2.4095724
741,-0.37417763,1.660918,-0.663111
742,-0.036490545,0.994816,1.2747762
743,0.27008986,-2.6799614,3.6990047
744,0.6200402,-4.831109,3.3900316
745,2.7831519,-9.272188,1.9214365
746,4.1844487,-25.34358,4.805685
747,3.6885362,-74.7126,17.796618
748,-1.971985,-77.58219,4.836792
749,-22.951656,-62.01628,6.578468
750,-23.512175,-41.324047,5.5651073
751,-15.544972,-25.314867,-0.7830512
752,-8.382357,-15.524633,1.6244274
753,-1.454537,-13.634603,6.95444
754,13.249059,-15.373587,-3.8371902
755,16.070795,-12.798311,-7.0399833
756,6.558428,-9.622138,-4.453043
757,-0.60658056,-4.9674997,-4.3498526
758,0.6750751,-2.140978,-4.371388
759,3.7292142,0.8344969,-5.6578293
760,4.2969112,3.9340994,-8.153842
761,2.3374887,6.001498,-9.1002035
762,-0.95383894,8.035098,-8.616255
763,-3.1890345,9.805488,-8.218747
764,-2.1326032,10.82842,-19.975882
765,-1.9839491,10.67498,-19.319351
766,-1.5454643,9.427123,-15.194424
767,-0.20398813,8.547761,-11.3880415
768,0.47856453,7.359724,-8.582756
769,0.58654064,3.1603205,-5.2169514
770,1.1039885,0.20668006,-4.158128
771,0.23659034,-2.1023939,-1.8155541
772,-1.3444673,-3.7651064,1.9669002
773,3.0227332,-5.2142596,48.22405
774,-0.45792642,-15.067006,57.897038
775,-4.540082,-18.04936,-3.255136
776,6.579963,-4.790132,-34.72973
777,-0.82941216,-5.930611,-5.281857
778,-2.3288147,-6.385546,0.2111666
779,-8.660223,-16.144972,1.6459628
780,-13.477573,-27.746275,-13.282858
781,-23.694328,-53.380585,-20.167307
782,-6.7343,-40.437805,-4.357031
783,2.4861426,-26.510382,-4.996812
784,2.8716862,-17.155941,-15.019448
785,0.9242278,-17.258831,-16.746767
786,3.4633117,-19.168005,-18.107386
787,7.313064,-22.076181,-15.474683
788,11.763715,-27.54767,-9.586545
789,12.84886,-29.64109,-8.803194
790,9.346664,-29.890244,-10.472787
791,14.113766,-33.85485,1.4039887
792,11.665608,-34.180573,20.781366
793,8.237591,-28.546373,47.378487
794,-6.343672,-17.527126,58.79554
795,-14.941084,-13.452449,38.033615
796,-21.492931,-9.830314,9.223135
797,-16.924734,-6.347261,5.6991053
798,-9.362218,-3.3720853,15.460924
799,-0.06999006,-3.1085758,17.470596
800,5.0994043,-5.168796,14.634503
801,9.3562355,-5.168796,15.444175
802,13.332808,-4.3758745,10.72493
803,13.222738,-4.9028935,1.5669997
804,11.378171,-5.1065826,-4.5966125
805,7.3633137,-4.6226344,-3.5306098
806,3.1519456,-3.621238,-2.4382863
807,0.8644072,-2.1720848,-2.1867409
808,0.3684947,-0.38733816,-3.0681968
809,0.2724827,0.9206385,-3.6338003
810,-0.34067813,1.5529419,-2.6898317
811,-0.9107681,1.3253247,-1.2215359
812,-0.084346995,0.81984085,-0.3684947
813,-0.47946185,0.86560357,0.76689965
814,-1.0232308,-3.7268212,2.9443684
815,0.49052864,-5.137689,1.753939
816,2.6105695,-8.785847,-0.8021938
817,5.2959146,-39.33591,18.836
818,2.23699,-77.65906,7.998907
819,-15.669399,-77.65906,-0.39720857
820,-25.066912,-59.908203,13.887045
821,-18.424135,-35.756847,4.853542
822,-7.4697943,-16.954643,3.818646
823,-3.6152558,-13.141083,9.040981
824,13.61546,-13.924433,-9.476176
825,15.263516,-11.131112,-8.8701935
826,2.6775684,-6.594021,-4.4168515
827,1.6139588,-3.24048,-6.0290155
828,3.7292142,-1.2831511,-7.54786
829,5.7894344,3.33051,-8.515757
830,3.8180475,5.1678987,-9.3613205
831,1.3384851,8.921639,-10.329217
832,-1.6749759,10.931312,-12.41546
833,-3.1456645,11.350654,-23.06352
834,-3.1265218,11.954243,-20.179272
835,-3.1049864,11.221142,-16.619648
836,-1.7898313,10.375578,-11.596217
837,-0.6664011,7.730911,-7.0950184
838,-0.62811595,4.063611,-5.085346
839,-1.3133606,1.1027921,-3.7031922
840,-1.5693926,-0.79950184,-3.1450663
841,-3.0212376,-3.688237,0.23988047
842,-3.7543387,-5.2573304,1.9501505
843,2.8932216,-15.524633,74.50024
844,-2.8366911,-23.225933,8.334201
845,10.295419,-9.003893,-35.89144
846,-1.4569299,-8.546564,-4.848158
847,-0.8964112,-11.715559,17.889938
848,-7.5607214,-18.308084,-3.0323045
849,-9.038589,-24.905396,-14.221742
850,-17.54268,-36.559338,-17.285751
851,-11.350354,-32.91836,-9.085847
852,3.2309089,-20.35634,-9.13131
853,6.0625153,-15.816856,-17.750257
854,3.882654,-15.407086,-21.329323
855,5.782256,-18.044575,-14.667404
856,3.4537404,-21.838993,-11.562717
857,5.1810594,-23.381765,-10.870593
858,10.800902,-26.565416,-8.175676
859,16.880466,-28.033712,-10.999805
860,12.638291,-31.035507,-16.334604
861,5.1236315,-39.22554,-7.0280194
862,2.1505494,-40.701317,30.159735
863,-2.1684954,-32.69792,63.967327
864,-11.637792,-15.828821,50.75147
865,-16.330715,-15.347265,30.174091
866,-23.831018,-10.096216,1.8711873
867,-13.230814,-4.4835515,8.252846
868,-5.0623155,-2.2175484,15.386747
869,0.9840483,-2.7948167,15.3290205
870,7.435098,-2.8115666,14.315959
871,11.996118,-3.4657044,15.305092
872,13.304094,-4.0980077,11.668899
873,12.422638,-4.8047876,4.0965123
874,10.269097,-5.118547,-1.7027924
875,6.5895343,-4.3064823,-1.7434704
876,2.6679974,-3.362514,-1.0130613
877,0.92183495,-1.9803598,-1.8801605
878,-0.59700924,-0.5383851,-3.188137
879,-1.3301103,0.71216387,-4.342674
880,-2.0318055,1.7518452,-3.9212382
881,-2.554039,1.8188443,-2.5869403
882,-1.4377873,-1.1443675,2.7000012
883,-0.16331014,-5.2573304,3.9577286
884,1.6477575,-9.363414,0.84347
885,3.1758738,-18.00629,-0.17706887
886,5.0970116,-33.486057,-1.2092727
887,-0.34067813,-59.060246,-8.520542
888,-7.785946,-64.19883,7.845467
889,-27.582365,-56.291153,3.62722
890,-25.239492,-39.084366,6.003293
891,-14.186747,-24.086153,0.22313072
892,-12.850056,-18.5692,-5.9141603
893,-5.6706905,-11.782857,2.8103702
894,6.477072,-10.604093,5.7759748
895,15.529419,-12.61885,-5.9141603
896,15.277873,-10.999507,-5.662615
897,3.9472601,-6.9391856,-2.958127
898,1.8367904,-3.4247274,-3.1235309
899,4.7784667,-1.5059828,-4.280461
900,5.7870417,1.6175481,-6.129813
901,5.2743793,5.7188463,-5.552545
902,4.1964126,9.470194,-7.8257265
903,2.3685954,11.43201,-16.190735
904,0.3278167,12.203396,-21.195024
905,-1.2484552,12.548261,-16.892729
906,-1.0208379,12.498012,-12.38196
907,-0.4746762,11.19482,-9.878768
908,-0.6448657,8.219645,-7.753942
909,-0.9203394,3.3185458,-6.3143597
910,-1.0399805,0.17318054,-5.142774
911,-1.7898313,-1.2975081,-0.9819546
912,-3.083451,-2.9985058,2.053341
913,-4.0848475,-10.067502,78.709206
914,-6.969096,-21.335901,45.433422
915,-5.7209396,-17.539091,-30.626036
916,0.7109674,-7.573882,-12.444173
917,-3.437888,-8.462517,8.549854
918,-9.280562,-16.499409,16.21556
919,1.2092727,-18.29612,-20.55315
920,-12.13849,-32.8056,-27.588646
921,-14.318352,-37.701912,-19.0367
922,0.79471624,-22.826033,-4.476971
923,6.867401,-15.387943,-5.2698927
924,5.892326,-13.898112,-14.25524
925,5.77747,-16.008282,-13.4096775
926,4.0238304,-20.784954,-10.019945
927,3.2383864,-23.075186,-10.391431
928,4.9606204,-26.08386,-8.326425
929,12.482458,-27.75106,-8.249854
930,14.561821,-28.996822,-8.769695
931,11.42842,-31.20779,-19.855942
932,5.6578293,-37.18955,-3.60718
933,3.7100716,-35.967712,30.279375
934,1.0992029,-24.337698,62.031834
935,-8.047063,-14.123037,49.079185
936,-15.099309,-12.973287,28.35106
937,-22.422243,-9.178867,5.8597236
938,-13.690834,-4.505087,6.722037
939,-5.6611195,-1.5131612,14.744574
940,-0.59700924,-1.4868401,16.730616
941,6.853044,-1.5804594,14.380565
942,12.043974,-2.7613173,13.52543
943,13.2921295,-4.3854456,9.174979
944,11.421242,-4.8622155,2.932404
945,8.285447,-4.586742,-1.5640087
946,4.3091745,-3.7938204,-0.47168517
947,2.1891336,-2.9410782,0.017048862
948,0.5168497,-2.0138593,-0.6128617
949,-0.35264224,-0.7393822,-2.359323
950,-1.4377873,0.24735804,-3.5808592
951,-1.986342,1.0522437,-3.1402807
952,-3.030809,1.6561323,-1.2909278
953,-2.475076,-1.0486546,3.7181473
954,-0.9107681,-5.5160546,5.898009
955,0.7899306,-10.587343,3.7301114
956,5.183452,-19.97289,2.21366
957,10.012766,-45.949673,11.306984
958,5.31745,-77.65906,5.979365
959,-7.6779695,-66.541405,-4.2445683
960,-21.97688,-51.16483,3.4019957
961,-20.747866,-36.6386,0.6541379
962,-17.468502,-26.114967,-3.8925242
963,-9.793225,-18.200407,-0.84765744
964,-4.1422753,-12.563814,4.395914
965,9.231809,-12.9685,1.1333007
966,17.330915,-12.626028,-11.122139
967,4.9103713,-6.078966,-5.832804
968,-0.17766708,-3.4486556,-5.0973105
969,1.477568,-0.811466,-5.9548383
970,4.0672,2.2477577,-6.515357
971,4.536493,6.937989,-8.228319
972,2.3614168,10.634302,-8.463115
973,0.16959131,12.263216,-11.201102
974,-0.03888337,12.282358,-19.21646
975,-0.56111693,12.524333,-20.066809
976,-1.061815,11.554342,-16.689041
977,-0.4244269,9.882058,-11.934203
978,-0.6472585,7.089036,-8.036594
979,-1.5598212,3.5174494,-5.1882377
980,-2.0150557,0.22103699,-4.0911283
981,-2.3814569,-2.4475584,-2.8166513
982,-3.164807,-3.6978083,-0.5841478
983,-3.449852,-4.914858,1.0758729
984,-2.6572297,-10.673485,78.709206
985,-2.0676978,-18.974186,53.209198
986,-0.08673982,-22.627129,-3.5210385
987,12.971192,-6.105287,-36.260235
988,-0.024526432,-7.7464643,-9.45464
989,-1.3157533,-8.82443,-5.274678
990,-4.540082,-20.485554,-6.501
991,-12.6009035,-38.38237,-20.023739
992,-17.089838,-47.14758,-18.758833
993,-5.3832526,-29.959934,-5.0159545
994,3.6023946,-15.943676,-1.8562322
995,1.8056837,-14.190335,-7.409076
996,2.2274187,-14.736497,-10.865808
997,3.9424744,-17.472092,-10.2571335
998,5.2695937,-19.822144,-13.749757
999,9.020942,-22.665415,-9.234201
1000,13.100405,-26.699413,-9.081061
1001,15.179768,-27.463621,-11.857333
1002,14.671891,-31.159935,-18.605392
1003,9.574282,-35.32823,-0.74476606
1004,10.5685,-34.56881,19.986052
1005,5.6264234,-25.642982,53.230732
1006,-4.494319,-14.532808,54.373306
1007,-12.574582,-12.946965,29.680573
1008,-19.339392,-12.043974,10.380065
1009,-19.962122,-7.6337023,1.7922242
1010,-11.24507,-4.2224345,15.853646
1011,-1.9600209,-2.6006992,18.713966
1012,3.9951165,-3.0559337,17.952152
1013,7.978867,-4.109972,16.718653
1014,12.70529,-3.970889,9.1510515
1015,11.924333,-4.8382874,3.5168512
1016,10.410274,-4.7470613,-3.8563328
1017,7.2915287,-3.2500513,-3.8084764
1018,3.039483,-2.2797618,-2.6371896
1019,1.3432708,-1.0052847,-3.094817
1020,0.44985065,-0.18843478,-3.1833515
1021,0.016151553,0.9613165,-2.239383
1022,-0.16570297,1.3492528,-2.1125634
1023,-0.034097724,1.5601203,-2.1460629
1024,0.22701904,1.0713863,-0.23688944
1025,1.07019,-2.548057,3.1432717
1026,1.0654043,-5.3796635,2.4412773
1027,3.932903,-9.600304,-0.1698904
1028,6.6684976,-26.620451,3.0352955
1029,9.428319,-70.90621,14.255839
1030,-2.0030916,-73.02356,0.5416752
1031,-19.411175,-62.33273,8.753544
1032,-26.226532,-47.19783,5.8357954
1033,-22.628326,-30.63531,-1.6716857
1034,-11.906087,-15.503098,0.695115
1035,2.7735806,-11.301301,3.1073792
1036,10.261919,-13.5481615,-8.376674
1037,15.055341,-10.999507,-9.260822
1038,6.179764,-6.5629144,-3.4420755
1039,1.6139588,-2.2725832,-4.364209
1040,3.6646078,-0.87367934,-4.987241
1041,4.9749775,1.1793624,-6.256633
1042,3.9664025,4.262215,-8.70479
1043,2.984448,8.593523,-10.741082
1044,0.16719848,9.917951,-12.389138
1045,-1.6295122,11.22832,-19.264317
1046,-3.8069808,11.78166,-20.725433
1047,-4.307679,11.056037,-16.564613
1048,-2.6835506,10.114461,-11.946167
1049,-1.7084754,7.2903323,-7.4593253
1050,-1.7012969,3.8790646,-4.263711
1051,-0.9179466,1.0139586,-3.5688949
1052,-2.2881367,-1.4365909,-1.5352948
1053,-3.4956148,-2.9769704,-0.62961143
1054,-4.5711884,-4.6202416,1.5693926
1055,0.9290134,-12.879966,78.709206
1056,2.265704,-18.732212,36.536606
1057,4.371388,-13.409378,-36.413677
1058,3.0825539,-10.501202,-12.580863
1059,0.39960137,-10.700105,0.4459623
1060,0.10737792,-16.624136,-0.9508479
1061,-4.5592246,-20.387447,-11.895618
1062,-11.558829,-32.388947,-14.039588
1063,-17.710476,-41.15386,-14.633905
1064,-3.7208393,-26.328228,-6.8099732
1065,4.6037908,-17.723637,-13.371392
1066,4.6037908,-17.723637,-13.371392
1067,3.2623146,-16.257435,-13.01217
1068,3.7483566,-18.456738,-12.432209
1069,7.0375905,-18.813568,-10.824831
1070,11.555539,-20.301006,-9.143274
1071,18.677177,-24.112474,-10.762617
1072,16.593029,-27.38705,-14.317454
1073,6.268597,-33.749565,-13.98216
1074,3.1088748,-39.517765,-2.0599213
1075,1.2499508,-36.554554,46.075294
1076,-4.1662035,-21.731316,70.334625
1077,-14.23221,-15.057435,41.612682
1078,-17.274385,-14.209478,24.573391
1079,-22.906193,-11.279766,6.250053
1080,-8.432606,-5.556732,9.798011
1081,1.2978072,-2.3539393,15.12563
1082,4.5675993,-2.426023,14.509777
1083,7.248159,-1.8918254,13.015161
1084,11.794821,-2.1864417,12.372987
1085,12.422638,-3.4103706,6.745965
1086,10.977971,-4.4285164,0.90089774
1087,8.944371,-4.054937,-1.3316058
1088,5.439783,-3.6954155,-1.410569
1089,2.0141585,-2.754139,-1.4799608
1090,0.7683952,-1.1563315,-2.7017958
1091,0.7683952,-1.1563315,-2.7017958
1092,-1.4258232,0.96849495,-3.6409788
1093,-2.2331018,1.0570294,-2.9748766
1094,-2.5205395,1.2894323,-1.9591235
1095,-2.187638,0.46061835,1.6076777
1096,-1.3707882,-4.052544,4.6764727
1097,-0.64247286,-6.402595,2.8055844
1098,0.47138608,-10.966007,2.0341983
1099,2.3422742,-33.19144,3.7229328
1100,-0.5802595,-77.65906,10.128519
1101,-6.7630143,-76.7462,-2.9270203
1102,-20.414965,-56.370117,5.9937215
1103,-20.158634,-36.844383,4.319344
1104,-13.197314,-24.761526,-2.0958135
1105,-6.5832534,-15.584454,0.93708915
1106,4.153342,-10.3645115,5.078766
1107,12.966407,-13.313366,-0.5386842
1108,15.977475,-11.686845,-7.5263247
1109,4.6468616,-7.3749785,-2.905485
1110,0.49292147,-3.6810586,-3.1235309
1111,2.6009982,-1.3070793,-4.747659
1112,4.668397,1.2702898,-7.1336026
1113,4.275376,5.110172,-8.542078
1114,2.3398814,8.277073,-7.5813594
1115,0.7851449,9.592228,-9.655936
1116,0.7851449,9.592228,-9.655936
1117,-1.3372887,11.685947,-20.589043
1118,-2.408077,11.242677,-16.947765
1119,-1.5936198,10.557732,-14.202599
1120,0.21984059,8.902496,-9.476176
1121,0.025722843,5.452944,-6.498607
1122,-0.61854464,2.0895324,-5.0973105
1123,-1.3851452,-1.1084751,-4.371388
1124,-2.228316,-2.8546374,-0.026021946
1125,-2.745764,-3.92064,2.3862424
1126,2.1385853,-10.187443,78.709206
1127,-6.9209404,-19.472193,34.092937
1128,-0.7716853,-10.580164,-41.321953
1129,-1.957628,-12.211472,4.18056
1130,-10.3441725,-18.49981,26.125734
1131,3.0346973,-15.589239,-20.725433
1132,-4.5544386,-26.328228,-16.72972
1133,-14.162818,-39.75256,-18.97927
1134,-9.199206,-34.794033,-13.939089
1135,5.573781,-18.149858,-14.461323
1136,8.489137,-14.595021,-21.647867
1137,4.6803613,-15.043077,-21.358036
1138,7.4398837,-16.813168,-12.95205
1139,4.848158,-19.654346,-9.219845
1140,4.060022,-21.637697,-6.3741803
1141,4.060022,-21.637697,-6.3741803
1142,19.30978,-26.033611,-8.5349
1143,13.785649,-29.523842,-10.611869
1144,6.7381887,-38.55974,-11.155639
1145,3.2742786,-41.24748,21.78964
1146,2.2944179,-29.595627,61.83293
1147,-8.023134,-17.028822,55.202118
1148,-14.102698,-14.159229,36.184265
1149,-23.74697,-9.109476,4.8439703
1150,-11.530115,-3.9780676,3.8042889
1151,-4.4225345,-1.3911272,12.967005
1152,0.52163535,-1.50359,15.77229
1153,5.9931235,-2.0617158,15.276378
1154,9.516854,-4.2248273,15.525531
1155,11.07159,-4.2535415,15.647863
1156,9.595817,-4.744668,6.358029
1157,8.206485,-4.974678,-0.18185452
1158,6.426523,-4.62742,-2.2034905
1159,2.7759733,-3.5614173,-2.0862422
1160,0.18155542,-2.5408785,-2.309074
1161,-1.495215,-1.4844474,-2.71376
1162,-2.2737796,-0.17647067,-3.1187453
1163,-1.931307,1.0833504,-2.8791637
1164,-2.5755744,1.9268204,-2.618047
1165,-2.542075,1.7327027,-0.6559325
1166,-0.3909274,-2.9096723,4.467998
1167,-0.34067813,-7.7847495,5.8094745
1168,3.077768,-14.920745,3.409174
1169,7.2843504,-28.60141,-1.4033905
1170,6.2997036,-61.95885,-9.792626
1171,2.4933212,-75.6778,4.221238
1172,-17.18585,-59.237614,1.8520447
1173,-22.223639,-40.191044,10.492527
1174,-19.145273,-30.43162,6.0155563
1175,-14.778372,-22.059431,-1.721935
1176,-8.525927,-14.242978,4.333701
1177,2.6512475,-11.255837,5.176872
1178,13.7425785,-12.496516,-7.6292157
1179,13.852649,-8.783454,-6.4028945
1180,2.0715861,-4.069294,-5.3679986
1181,0.9768698,-0.80907315,-5.0327044
1182,2.3542383,2.1999013,-6.0170517
1183,4.7042894,5.462515,-6.9825554
1184,3.6981075,9.081959,-8.721839
1185,3.3293135,10.93849,-10.551749
1186,1.0103694,11.5519495,-15.24228
1187,-0.98973125,11.702698,-17.426928
1188,-2.7074788,11.463116,-16.72254
1189,-2.5899315,11.388939,-13.776078
1190,-1.3277174,9.154042,-9.9553385
1191,-1.3106686,5.486443,-6.3646092
1192,-0.99690974,0.58534425,-5.902196
1193,-1.3803595,-1.4533406,-4.5726843
1194,-2.6739793,-3.254837,-2.7041886
1195,-3.818945,-4.153043,-0.43818563
1196,-4.7027936,-5.3676996,0.97776717
1197,-1.5936198,-12.501302,78.709206
1198,-0.9849456,-17.321045,48.81807
1199,-1.7324036,-17.18944,-29.009087
1200,6.606284,-8.043473,-19.192532
1201,-2.1589243,-10.659127,-4.0911283
1202,-8.439785,-18.200407,9.984651
1203,-6.4348984,-23.400908,-11.066805
1204,-14.749658,-44.75685,-17.3695
1205,-11.508579,-42.73013,-12.056237
1206,2.0500507,-23.925535,-10.197312
1207,4.874479,-17.32583,-12.942478
1208,4.0791645,-15.641882,-15.860227
1209,5.0012984,-16.85893,-17.664116
1210,5.7870417,-16.885252,-15.888941
1211,11.763715,-19.944178,-9.967302
1212,14.842081,-25.449163,-7.8017983
1213,13.668102,-25.961826,-8.697611
1214,13.189239,-27.988249,-16.873587
1215,8.977871,-37.17519,-5.832804
1216,8.977871,-37.17519,-5.832804
1217,6.812366,-32.532516,56.965332
1218,-5.5794644,-14.937494,55.8084
1219,-14.974882,-13.32533,28.372595
1220,-21.385254,-10.599307,4.7267222
1221,-13.503895,-5.2692947,3.0786655
1222,-2.7026932,-3.7627137,14.210376
1223,3.4776685,-2.8642087,13.875081
1224,6.908079,-2.9602208,14.519349
1225,8.299805,-3.3960135,16.021442
1226,11.184053,-3.3864422,12.11187
1227,11.634501,-4.256233,4.6450667
1228,10.913365,-4.807181,-1.3268201
1229,8.666505,-4.258626,-4.0360937
1230,3.2647073,-2.9769704,-2.7592237
1231,1.0103694,-1.585245,-2.158027
1232,0.2748755,-0.7178468,-2.2274187
1233,-0.23030917,0.52522457,-2.618047
1234,-0.9634102,1.2846466,-2.8863423
1235,-1.224527,1.457229,-1.9710877
1236,-1.2436695,1.6393826,-0.4621139
1237,-0.03888337,-1.1706885,3.2461631
1238,-0.13220344,-5.005785,4.2499523
1239,1.7985053,-7.8517485,0.23748764
1240,2.7759733,-12.635599,-2.0117657
1241,2.7759733,-12.635599,-2.0117657
1242,5.6554365,-77.59445,2.2447667
1243,-18.517756,-77.06504,-1.7099708
1244,-33.043983,-54.729237,12.933505
1245,-20.913269,-32.02464,8.16431
1246,-15.729219,-18.248264,-0.77347994
1247,-9.412467,-9.739387,1.0950154
1248,5.942874,-6.0047884,4.8918266
1249,11.919547,-8.592028,-6.798009
1250,13.375878,-6.905387,-6.896414
1251,4.9342995,-2.3108685,-4.33071
1252,2.3231318,-0.023330022,-4.4410787
1253,4.019045,2.5351956,-4.6301117
1254,5.0491548,4.465904,-4.848158
1255,3.757928,7.496115,-6.759724
1256,2.2561326,9.44148,-8.257032
1257,3.1519456,11.740982,-14.219349
1258,-0.5802595,10.464412,-20.184057
1259,-1.9193429,10.835598,-16.480865
1260,-2.7601209,10.057034,-11.943774
1261,-1.986342,7.812566,-10.096814
1262,-1.4377873,4.427619,-7.8352976
1263,-1.0737791,0.87278205,-5.9452667
1264,-1.7754744,-1.0292128,-3.9332023
1265,-2.5444677,-1.7934206,-2.1125634
1266,-2.5444677,-1.7934206,-2.1125634
1267,-3.4764721,-3.7818563,0.74536425
1268,0.61046886,-18.03261,78.709206
1269,-6.5688963,-19.151255,7.050153
1270,-3.2943187,-7.545168,-42.26353
1271,1.9495523,-4.5628138,-34.47818
1272,-11.79841,-14.034503,27.359236
1273,0.72293156,-13.045071,-27.432814
1274,-0.45553362,-24.234509,-18.852152
1275,-13.297812,-40.28915,-23.952154
1276,-8.04467,-35.023746,-16.456638
1277,4.6205406,-22.435404,-13.457534
1278,5.2456656,-20.001604,-10.678868
1279,4.222734,-19.517956,-11.01177
1280,3.7052858,-21.20669,-8.7266245
1281,7.387242,-19.31666,-10.295419
1282,16.418352,-17.920147,-9.428319
1283,20.176878,-21.185154,-9.464211
1284,16.454245,-25.077679,-11.699408
1285,8.278269,-33.7041,-13.347464
1286,4.447958,-40.648373,4.5732822
1287,7.0136623,-36.973896,34.627136
1288,-0.22552353,-22.44976,65.47182
1289,-9.668798,-15.471692,47.615677
1290,-19.878374,-16.130615,30.35834
1291,-19.878374,-16.130615,30.35834
1292,-11.237891,-5.032106,6.372386
1293,-0.66400826,-3.118147,14.473886
1294,6.8985076,-3.3577285,13.302598
1295,9.701401,-4.1961136,12.849756
1296,10.896615,-3.8967116,13.161122
1297,13.464712,-3.7746778,9.725926
1298,13.01187,-4.215256,1.4470595
1299,10.103694,-4.045366,-1.750948
1300,5.770292,-3.4824543,-0.36131623
1301,2.6608188,-2.5145576,-0.18424734
1302,1.355235,-1.314557,-1.1566306
1303,0.51206404,-0.5455636,-2.0934207
1304,-0.8222337,0.4869394,-3.1115668
1305,-1.7012969,0.9206385,-2.6563323
1306,-4.19731,0.750449,2.7047868
1307,-3.7157545,-2.833102,3.1073792
1308,-1.7587247,-5.10419,4.9253263
1309,0.090628155,-8.881859,1.724926
1310,2.1891336,-17.297117,3.8353956
1311,7.2819576,-44.129032,12.138191
1312,5.331807,-77.65906,3.9577286
1313,-13.0055895,-70.381584,-9.603294
1314,-23.950659,-50.49155,6.743572
1315,-24.087349,-36.981075,8.027621
1316,-19.681864,-26.076681,0.939482
1317,-8.969196,-15.0837555,3.1983066
1318,7.18116,-12.005389,3.1959138
1319,16.95255,-12.41516,-10.623834
1320,9.483355,-8.515159,-4.8433723
1321,1.7482561,-4.2391844,-3.8730826
1322,3.2862427,-0.90478605,-5.4637113
1323,6.0433726,1.7662022,-6.798009
1324,4.915157,6.0254264,-7.059126
1325,4.1988053,8.88814,-7.097411
1326,0.9936196,11.372189,-9.002098
1327,0.16959131,10.521839,-22.229921
1328,-0.328714,11.240284,-21.86352
1329,-1.7491534,11.817852,-17.127525
1330,-1.5335002,10.770992,-11.857333
1331,-1.4258232,7.7620177,-9.483355
1332,-1.6941184,3.8024943,-6.8748784
1333,-1.6151553,1.0713863,-5.68415
1334,-2.1517458,-2.6054847,-3.7247276
1335,-3.2991042,-4.2248273,-0.40917268
1336,-3.4450665,-5.53759,1.4784653
1337,-0.67836523,-16.890038,76.874214
1338,-2.3216362,-25.908886,20.714067
1339,10.999805,-10.374083,-47.86423
1340,4.1126637,-8.436195,-16.20539
1341,-2.0748763,-8.853145,-8.422137
1342,-4.724329,-14.741283,6.5760746
1343,-8.823235,-22.756641,-11.366207
1344,-16.72583,-37.450665,-16.674685
1345,-10.701301,-34.345978,-10.2978115
1346,-0.38614175,-22.569702,-4.306782
1347,2.9004002,-16.420446,-4.9582276
1348,1.8272192,-15.040685,-12.017952
1349,1.6091732,-15.869499,-17.527426
1350,3.8850467,-18.887745,-16.947765
1351,4.855336,-23.010578,-12.396317
1352,8.673683,-26.91746,-9.337392
1353,13.42882,-29.892635,-8.649755
1354,15.091233,-30.834211,-10.142278
1355,11.385349,-36.446877,-10.70519
1356,10.812866,-38.82325,14.009079
1357,7.1691957,-31.310982,56.459846
1358,-2.50379,-15.716059,64.870316
1359,-13.288241,-13.533805,33.956547
1360,-23.179274,-11.190932,5.4116673
1361,-15.111273,-6.196513,3.0762727
1362,-4.647759,-3.2093735,16.46232
1363,2.6273193,-3.0966115,15.777076
1364,7.543074,-4.176971,14.09552
1365,7.722536,-4.59392,15.173487
1366,7.722536,-4.59392,15.173487
1367,12.099308,-4.9340005,4.86072
1368,11.275279,-4.3519464,-1.6621144
1369,8.103593,-3.757928,-2.7185457
1370,3.9711883,-2.6006992,-1.5544374
1371,1.015155,-1.6283158,-1.6525432
1372,-0.13459627,-0.5838487,-2.0934207
1373,-0.4651049,0.36251262,-3.0900314
1374,-0.6687939,1.0833504,-3.013162
1375,-0.965803,1.3854443,-1.8299111
1376,-0.07238288,0.84167534,1.1380863
1377,0.9529416,-3.0439694,2.7263224
1378,2.2680967,-6.5030937,0.5201398
1379,3.5186458,-11.835499,-3.121138
1380,4.383352,-28.38127,-2.7329025
1381,6.927222,-63.74599,12.782758
1382,-4.3268213,-65.901924,-2.0575283
1383,-17.504395,-58.564335,4.031906
1384,-22.535006,-49.511986,11.239985
1385,-19.928623,-31.74438,2.5444677
1386,-16.639688,-20.648563,0.5057829
1387,-6.1881385,-12.994822,2.8869405
1388,8.422137,-10.846066,6.777072
1389,14.904294,-13.054642,-3.935595
1390,11.986546,-10.14168,-5.169095
1391,11.986546,-10.14168,-5.169095
1392,3.7052858,-3.906283,-5.2459645
1393,6.187241,-2.6222346,-8.266604
1394,5.7750773,1.1530414,-9.057133
1395,2.8381867,4.8059845,-9.210274
1396,2.3279173,6.1043897,-9.238987
1397,-2.5851457,10.679766,-17.604296
1398,-3.9361932,11.8130665,-24.115166
1399,-5.1029935,13.19522,-18.794725
1400,-4.4751763,13.288541,-13.56551
1401,-2.8630123,10.224831,-9.136096
1402,-2.3742783,6.667301,-6.647261
1403,-2.1397817,4.317549,-4.9920263
1404,-2.1397817,1.1099706,-2.675475
1405,-3.0212376,-1.4102699,-0.2656033
1406,-3.4764721,-2.059323,1.5335002
1407,-1.1120644,-4.112365,57.23123
1408,-0.5300102,-17.254045,72.99365
1409,-5.2920265,-25.518557,-8.062915
1410,11.742179,-12.101401,-26.683262
1411,1.87029,-17.601305,4.7075796
1412,-4.0561333,-16.892431,-6.5898337
1413,-1.4880366,-16.077974,-17.493927
1414,-12.543177,-28.199116,-18.945772
1415,-15.4776745,-32.68117,-19.788942
1416,-15.4776745,-32.68117,-19.788942
1417,6.9224358,-11.509776,-24.337997
1418,3.5473595,-12.590136,-14.660226
1419,4.004688,-15.145969,-10.985449
1420,0.1480559,-19.659132,-5.631508
1421,-1.0208379,-23.137398,-7.708478
1422,0.6559325,-26.321049,-8.510971
1423,10.371989,-29.502306,-12.533007
1424,16.506887,-34.04179,-14.039588
1425,9.176774,-37.441093,-13.119846
1426,11.004591,-42.675095,-14.226527
1427,4.5652065,-43.092045,33.68825
1428,-0.7405786,-28.498518,78.709206
1429,-8.890233,-14.860924,52.66782
1430,-15.870695,-10.774282,25.019054
1431,-18.625433,-6.5437717,3.682255
1432,-6.5904317,-3.501597,6.38435
1433,1.681257,-0.48305106,13.745569
1434,7.0806613,-1.340878,12.964612
1435,8.232805,-2.5097718,14.531313
1436,11.876476,-3.0487552,16.294523
1437,11.497812,-4.019045,10.622039
1438,10.728819,-4.438088,2.5468607
1439,8.082058,-4.3088756,-1.6692929
1440,5.341378,-4.026223,-1.3746766
1441,5.341378,-4.026223,-1.3746766
1442,0.2748755,-1.5394822,-0.78065836
1443,-0.42921257,-0.7298109,-1.8825532
1444,-1.5478572,0.29282168,-2.946163
1445,-1.9624137,0.84406817,-3.159423
1446,-2.5971098,0.84406817,-2.277668
1447,-0.8437691,-2.6895328,0.8530413
1448,-0.10348958,-6.740282,3.083451
1449,1.9686948,-12.776775,2.5492535
1450,5.3676996,-22.24637,0.5608178
1451,7.025626,-40.718063,2.184946
1452,2.8788648,-65.257355,6.242874
1453,-12.114562,-59.570515,-4.65404
1454,-24.209383,-50.22086,-0.8739785
1455,-22.228426,-37.980076,4.254738
1456,-20.033907,-27.420551,-3.243172
1457,-14.876477,-16.176079,-1.43689
1458,-7.4599237,-11.159825,3.8401814
1459,8.977871,-12.606885,5.44756
1460,17.697615,-13.059428,-9.687043
1461,14.444274,-9.703494,-3.9882371
1462,1.9328024,-4.6896334,-2.4095724
1463,0.46181476,-2.845066,-3.1307094
1464,2.795116,-0.6963114,-4.2182474
1465,4.0767717,0.602094,-5.8304114
1466,4.543671,2.120639,-6.4698935
1467,3.1902308,8.088039,-8.043773
1468,1.07019,9.120243,-14.317454
1469,0.552742,10.10489,-22.963022
1470,-1.6031911,10.526625,-17.740686
1471,-1.7419748,10.600802,-12.595221
1472,-0.97537434,9.0747795,-9.2126665
1473,-1.1383854,5.543871,-7.2580295
1474,-1.2699906,2.0536401,-6.393323
1475,-1.5311074,-0.6891329,-4.651647
1476,-3.0810583,-2.4978077,-1.0968101
1477,-3.885944,-3.6260235,1.3106686
1478,-3.4549367,-4.028616,2.9012976
1479,0.89072824,-16.02264,78.01708
1480,-9.659226,-17.754744,-20.641685
1481,6.4555364,-6.460023,-17.292929
1482,-1.579263,-12.80549,10.962119
1483,-9.410074,-18.29612,10.11177
1484,-0.58504516,-17.088642,-15.21596
1485,-11.570793,-31.82125,-18.97688
1486,-15.1758795,-39.95864,-17.891733
1487,-0.9514461,-25.520948,-8.73141
1488,3.9927237,-16.528124,-12.403495
1489,4.1198425,-14.836996,-17.225632
1490,2.835794,-15.962819,-16.98605
1491,2.835794,-15.962819,-16.98605
1492,8.850752,-20.725134,-12.429816
1493,16.665112,-25.844278,-7.943274
1494,17.12244,-29.066216,-8.930014
1495,14.803796,-32.42484,-17.079668
1496,10.877473,-38.301014,-10.326824
1497,10.175478,-41.43651,19.835005
1498,7.277172,-35.807095,52.080982
1499,-4.894519,-20.478374,69.87461
1500,-15.669399,-15.378372,39.305702
1501,-24.331717,-11.600703,10.128519
1502,-15.506687,-5.9138613,5.596214
1503,-6.207281,-3.8608193,12.81865
1504,1.5254245,-2.8953154,13.6402855
1505,6.9296145,-2.821138,13.213765
1506,8.223234,-2.5600212,13.376776
1507,11.0811615,-2.754139,11.338091
1508,12.542279,-3.5087752,7.6660056
1509,11.229517,-4.0764723,-1.1303096
1510,8.053044,-3.9445682,-1.4344971
1511,3.8850467,-3.35055,-0.26799613
1512,1.7482561,-2.0760727,-1.1949158
1513,0.4977071,-0.68195444,-2.7927232
1514,0.08823533,0.39840496,-3.5928233
1515,0.100199446,0.9182457,-3.5330026
1516,0.100199446,0.9182457,-3.5330026
1517,-1.3971093,1.2655041,-1.7195421
1518,-0.97537434,0.8102696,1.1835499
1519,-0.25692934,-2.7493532,4.44407
1520,0.526421,-4.8095737,3.8330028
1521,2.3781667,-10.407582,5.610571
1522,5.2480583,-36.758244,18.65654
1523,2.8956144,-77.65906,6.1854467
1524,-8.037491,-77.35726,-7.2508507
1525,-22.276281,-59.230434,5.9506507
1526,-19.808983,-37.373795,5.608178
1527,-6.588039,-19.63281,3.3035908
1528,-3.152843,-13.57209,12.4833555
1529,7.8233337,-14.345869,-2.7975087
1530,15.982261,-12.103794,-11.79512
1531,4.536493,-8.100901,-4.601398
1532,2.2130618,-4.8119664,-5.859125
1533,2.9796624,-1.8005991,-6.7118673
1534,2.9626136,1.550549,-7.4856467
1535,2.629712,4.901996,-9.859626
1536,0.30388847,7.908279,-9.710972
1537,-3.4549367,10.751849,-9.299107
1538,-5.1388855,11.010573,-14.602798
1539,-5.749654,10.710873,-20.449959
1540,-5.069494,10.857134,-17.604296
1541,-5.069494,10.857134,-17.604296
1542,-1.3899308,8.79452,-8.82473
1543,-1.2077773,5.5869417,-6.175277
1544,-1.2269198,2.7293134,-5.2794642
1545,-1.7180467,-1.1060823,-2.8552356
1546,-1.7180467,-1.1060823,-2.8552356
1547,-4.0704904,-4.6202416,0.70229346
1548,0.53359944,-4.95075,41.761036
1549,2.6464617,-13.826028,52.87151
1550,-8.473284,-13.184154,-35.733215
1551,1.6669,-14.242978,-0.5458627
1552,-5.8501525,-22.529024,24.95415
1553,1.5469599,-15.416657,-15.683158
1554,-1.2340983,-18.50938,-14.094922
1555,-6.611967,-23.537598,-10.264312
1556,-11.884552,-36.45166,-10.389038
1557,-2.204388,-23.884857,-11.155639
1558,2.2154546,-16.777275,-15.896119
1559,3.0610185,-15.457335,-16.030416
1560,5.9524455,-15.395122,-16.550257
1561,5.645566,-16.822739,-12.650255
1562,9.14806,-20.782562,-10.772188
1563,15.495919,-27.286552,-11.054841
1564,20.900408,-31.66781,-13.397713
1565,14.3054905,-36.252758,-20.490936
1566,14.3054905,-36.252758,-20.490936
1567,5.9452667,-39.204006,40.493736
1568,1.939981,-26.165216,69.55846
1569,-13.302598,-20.6031,45.34698
1570,-15.552151,-19.577776,40.764427
1571,-18.714266,-8.879466,5.0883374
1572,-12.12174,-5.7819567,11.982657
1573,-3.112165,-3.3672996,16.378273
1574,1.3624134,-3.3074791,16.107584
1575,6.0577297,-2.6775684,14.49542
1576,6.7525454,-2.5384858,14.739787
1577,11.593824,-4.258626,9.493823
1578,11.98176,-4.989035,1.0399805
1579,10.067801,-4.519444,-2.891128
1580,6.862615,-4.0334015,-1.9304097
1581,1.815255,-3.44387,-1.4679967
1582,0.4953143,-1.9013968,-2.1460629
1583,-0.12981063,-0.39690945,-2.7520452
1584,-0.24496523,0.80548394,-2.8241289
1585,-0.6831509,1.5074782,-3.3077781
1586,-1.4473586,2.178366,-2.8022945
1587,-1.3803595,0.16600206,1.3896317
1588,-1.2604194,-3.8823547,2.7191439
1589,-0.07477571,-7.0540414,1.8568304
1590,-0.07477571,-7.0540414,1.8568304
1591,0.8356933,-11.217552,1.1883355
1592,3.1232316,-69.85457,8.825328
1593,-7.3378897,-72.12536,-5.9691954
1594,-20.048563,-56.353367,12.6987095
1595,-26.942585,-41.487057,8.621639
1596,-15.528222,-28.522446,0.71425754
1597,-6.518647,-17.409878,5.35424
1598,6.675676,-11.686845,9.6015
1599,15.694823,-13.090834,-5.1068816
1600,14.403596,-11.25823,-8.520542
1601,14.403596,-11.25823,-8.520542
1602,0.56500524,-3.5733814,-4.1437707
1603,5.1906304,-0.75613195,-5.7080784
1604,3.9999022,2.1975086,-7.643872
1605,2.5794628,3.8886359,-7.844869
1606,-0.77407813,6.9475603,-8.036594
1607,-1.7874385,8.449655,-10.154242
1608,-3.7061832,7.958528,-22.035803
1609,-3.723232,9.115458,-19.568504
1610,-3.5482569,9.704989,-15.731014
1611,-3.0140593,9.927522,-12.961621
1612,-1.2556337,7.9513497,-6.74776
1613,-1.2819548,5.081458,-5.413462
1614,-1.3010973,1.5002998,-4.486542
1615,-2.0964117,-0.19082761,-2.2752752
1616,-2.0964117,-0.19082761,-2.2752752
1617,-2.650051,-2.0138593,1.509572
1618,-2.3841486,-2.631806,2.7406793
1619,4.4168515,-10.946864,52.104908
1620,-8.202596,-10.376475,-28.79134
1621,1.721935,-5.10419,-21.281166
1622,-5.1963134,-18.851852,24.463022
1623,0.5240282,-14.55195,-19.417755
1624,-6.3747787,-24.996323,-11.169995
1625,-13.707583,-41.26662,-10.767403
1626,-16.321144,-45.944885,-12.480365
1627,0.11455639,-25.544878,-9.449855
1628,3.2189445,-19.215862,-14.109279
1629,4.2538404,-17.318651,-16.610077
1630,7.0806613,-17.539091,-16.526329
1631,11.6847515,-18.035004,-15.067305
1632,14.640784,-19.022043,-13.232309
1633,19.67618,-26.440691,-12.739089
1634,14.64557,-30.573095,-19.240387
1635,5.940481,-36.343685,-0.4860421
1636,4.627719,-38.7727,32.140694
1637,3.2285159,-28.82424,62.11319
1638,-7.943872,-19.081863,43.548176
1639,-17.032412,-18.566809,30.83511
1640,-23.723042,-13.167404,12.607782
1641,-23.723042,-13.167404,12.607782
1642,-3.3373895,-3.9613178,14.243875
1643,4.447958,-2.4619155,12.277274
1644,7.5068827,-2.7852457,11.326127
1645,8.738289,-1.7958134,10.365707
1646,10.499107,-2.0258234,9.984651
1647,10.499107,-2.0258234,9.984651
1648,9.792328,-3.8201413,0.23030917
1649,7.818548,-4.019045,-0.4334
1650,4.0405803,-3.1229327,-0.44057846
1651,1.640579,-2.1984057,-0.5315057
1652,0.3924229,-1.2568301,-1.1757733
1653,0.016151553,-0.18604197,-2.6156542
1654,-0.4866403,0.69302124,-2.8432715
1655,-1.5888343,1.1123635,-2.9892337
1656,-3.641577,0.91346,-0.78783685
1657,-2.9156544,-3.187838,4.264309
1658,-1.0160524,-6.747461,4.808078
1659,1.285843,-11.569596,2.6545377
1660,5.4182477,-21.865314,3.6032917
1661,8.750254,-49.789852,12.195918
1662,3.4824543,-69.51419,2.1275184
1663,-12.543177,-60.559948,3.8907297
1664,-23.08356,-46.76413,9.529716
1665,-27.673292,-40.384865,1.6866409
1666,-27.316463,-36.111584,-3.312564
1667,-5.361717,-14.762818,5.4837513
1668,4.627719,-13.310973,7.4766736
1669,17.42932,-13.490734,-6.0341005
1670,17.469997,-10.03161,-7.87119
1671,2.605784,-6.047859,-3.0442686
1672,-1.8424734,-2.344368,-3.204887
1673,1.4895321,0.62841505,-4.3115673
1674,2.6368906,3.929314,-6.925128
1675,1.9639091,7.3573313,-7.90469
1676,0.04516453,9.168399,-6.9418774
1677,-1.4186447,10.459327,-13.577474
1678,-1.2987045,9.760024,-23.993132
1679,-1.9456639,11.211571,-18.981665
1680,-1.9097716,12.023635,-13.253844
1681,-1.1048858,9.915558,-9.969695
1682,-0.9418748,6.562017,-7.90469
1683,-1.2125629,5.6204414,-7.4856467
1684,-1.483251,0.12771691,-5.8447685
1685,-2.2402802,-2.5600212,-1.6022938
1686,-3.0284162,-3.6667016,0.517747
1687,-3.1743784,-4.569992,3.7301114
1688,-0.9586246,-14.976079,78.709206
1689,-1.7706888,-23.865713,24.285954
1690,3.2309089,-17.860027,-33.198917
1691,1.7123637,-11.473584,-6.958627
1692,-3.0930223,-14.714962,6.966404
1693,-5.8046885,-18.614664,-12.583256
1694,-10.126126,-24.97718,-15.529718
1695,-13.106387,-28.280472,-16.51915
1696,-9.786046,-31.988749,-8.668898
1697,3.2383864,-16.954643,-11.883655
1698,3.3604202,-13.540983,-18.18635
1699,2.155335,-13.778172,-19.88944
1700,3.7124643,-15.136398,-16.164413
1701,2.914757,-18.274584,-11.440683
1702,7.2676005,-23.103899,-11.277672
1703,14.224134,-28.852955,-10.6357975
1704,18.03291,-31.936106,-12.95205
1705,11.754143,-39.053257,-24.021845
1706,8.000402,-44.581875,0.8673982
1707,6.390631,-40.960037,41.430527
1708,1.422533,-25.621447,77.15687
1709,-12.04517,-16.851753,47.31149
1710,-18.57279,-12.393625,22.139591
1711,-21.133709,-10.788639,14.584254
1712,-6.889834,-3.9517467,12.131013
1713,1.1255239,-2.2606192,16.251453
1714,7.559824,-1.9061823,14.675181
1715,8.970692,-2.3204398,12.013764
1716,8.970692,-2.3204398,12.013764
1717,12.250055,-2.05693,7.0405817
1718,8.999406,-4.6896334,-0.4142574
1719,5.916553,-4.1554356,-0.52193445
1720,3.3580275,-3.6403806,0.5416752
1721,-0.14895321,-2.399702,-0.95802635
1722,-0.9083753,-0.9550353,-2.158027
1723,-1.1718849,0.24496523,-3.1977084
1724,-1.6965113,1.2511472,-4.2948174
1725,-3.2703903,1.442872,-3.9308095
1726,-3.071487,-1.1754742,1.0854442
1727,-1.3947165,-2.984149,3.72054
1728,-0.8605189,-7.166504,4.499105
1729,0.7636095,-13.471592,2.882155
1730,3.1950164,-28.350163,2.2399812
1731,3.6885362,-68.7766,22.609182
1732,-8.092526,-75.42387,-5.102096
1733,-22.745872,-56.40601,6.209375
1734,-23.608187,-51.91468,5.979365
1735,-11.999408,-28.38127,-2.181955
1736,-5.759225,-16.71267,1.8951155
1737,6.3714886,-11.813964,6.760322
1738,16.34627,-14.027325,-6.5105715
1739,18.5025,-11.864213,-10.2571335
1740,4.699504,-6.948757,-3.0562327
1741,2.7424738,-5.7197433,-2.6946175
1742,3.3077781,0.62841505,-5.157131
1743,3.8706896,3.4214373,-6.230312
1744,2.0548365,8.986245,-8.597113
1745,0.7396813,11.1685,-11.210673
1746,-1.1096715,10.679766,-13.421641
1747,-2.02702,10.370792,-20.912373
1748,-2.204388,10.916954,-21.779472
1749,-1.7443677,10.265509,-16.509579
1750,-1.3540385,9.309576,-10.980663
1751,-0.92273223,7.323832,-8.1682
1752,-1.4210376,2.6572297,-5.6961145
1753,-1.9648064,-1.0411769,-4.7955155
1754,-2.9255247,-2.4164517,-2.548356
1755,-3.7974095,-2.9530423,-0.100199446
1756,-3.8955152,-3.2907293,0.34277186
1757,3.542574,-9.947861,78.709206
1758,0.011365907,-16.118652,54.44509
1759,-6.4444695,-20.114367,-24.788446
1760,8.340781,-8.912965,-33.718758
1761,2.9315069,-14.228621,3.7013974
1762,-8.501998,-21.103498,-2.062314
1763,-2.4439692,-20.080866,-18.69901
1764,-12.459428,-31.76831,-17.422142
1765,-11.429317,-33.282368,-13.534403
1766,-11.429317,-33.282368,-13.534403
1767,3.2093735,-16.80599,-16.111773
1768,2.5962126,-16.906788,-15.021841
1769,5.432605,-18.200407,-13.388142
1770,5.6889358,-21.446272,-12.458829
1771,11.708679,-24.965216,-13.333107
1772,20.50021,-31.485657,-10.597512
1773,23.992832,-33.20819,-15.891334
1774,11.421242,-40.442593,-14.997913
1775,5.5426745,-46.057648,10.375279
1776,3.7674992,-37.409687,56.53881
1777,-1.9671993,-24.035604,78.709206
1778,-17.317455,-16.614565,39.964325
1779,-24.757938,-13.658531,17.12573
1780,-16.412071,-7.0325055,6.9999037
1781,-7.3713894,-4.59392,10.490134
1782,0.79471624,-2.1242282,13.956437
1783,5.45414,-0.20518455,13.858332
1784,7.2699933,0.032004002,12.626925
1785,10.527822,-0.83060855,9.445667
1786,10.561321,-2.5576284,3.1839497
1787,9.128918,-3.760321,0.62781686
1788,6.474679,-3.712165,-0.27038896
1789,3.743571,-3.4872398,0.33320054
1790,1.8487546,-2.2007985,-0.26081768
1791,0.15284155,-0.6867401,-2.0694926
1792,-0.49381876,0.4941179,-3.106781
1793,-1.090529,1.1243275,-3.693621
1794,-2.216352,1.6223338,-3.4396825
1795,-2.82712,1.3686945,-0.6750751
1796,-2.9036903,-0.70588267,3.3323047
1797,-0.2832504,-6.7833533,5.854938
1798,1.8343977,-13.009178,3.545565
1799,7.2987075,-24.993929,8.708079
1800,11.5722885,-58.49255,14.390137
1801,1.6932211,-75.967636,1.1309078
1802,-15.79891,-62.078793,11.975479
1803,-25.165316,-50.913284,6.4417777
1804,-25.335207,-39.26383,-1.6142579
1805,-10.339387,-23.441586,-0.90508515
1806,-3.054737,-14.666806,2.5803602
1807,7.64118,-14.254942,5.109873
1808,19.060627,-13.672888,-11.522039
1809,12.523136,-9.612567,-7.066304
1810,2.1074786,-4.807181,-4.383352
1811,-0.11545369,-1.5346966,-5.7009
1812,2.3518455,1.9555343,-6.5536423
1813,2.481357,4.3558345,-7.626823
1814,0.49292147,9.968499,-9.727721
1815,-0.17527425,10.981561,-10.166206
1816,-1.576571,11.197213,-21.439392
1817,-1.9480567,11.542378,-24.086452
1818,-1.9480567,11.510972,-21.93291
1819,-1.7443677,11.125429,-17.431713
1820,-0.82941216,7.68784,-9.869197
1821,-1.5191432,3.8647077,-6.4818573
1822,-2.4846473,0.48933223,-4.699803
1823,-2.9108686,-1.5658033,-3.473182
1824,-3.99392,-3.5733814,-1.3220345
1825,-4.008277,-5.451448,0.46031925
1826,-0.084346995,-13.471592,78.709206
1827,2.9892337,-25.4037,48.375095
1828,7.6292157,-18.545273,-49.5745
1829,4.0310087,-9.799207,-16.966908
1830,1.0582259,-8.544171,-1.0322039
1831,-2.812763,-11.452049,13.443775
1832,-1.4569299,-16.38216,-14.657833
1833,-15.492031,-29.483164,-20.258533
1834,-15.837195,-34.709988,-19.319351
1835,-0.3167499,-24.344877,-9.064311
1836,7.600502,-19.88675,-6.316753
1837,8.129914,-17.527126,-12.865909
1838,6.6038914,-18.49263,-14.061123
1839,4.7784667,-22.016361,-14.183456
1840,7.066304,-24.663422,-15.71905
1841,12.643077,-28.055246,-12.949657
1842,14.3365965,-29.918957,-13.476676
1843,14.3365965,-31.643883,-21.049063
1844,7.2532434,-39.400517,-2.3114667
1845,7.2819576,-40.360935,34.996227
1846,3.2165518,-26.54388,74.41888
1847,-10.336994,-17.551056,48.544987
1848,-19.425533,-15.119648,24.348167
1849,-17.408682,-8.740383,7.1078796
1850,-10.236495,-4.119543,9.541679
1851,0.29162526,-3.254837,15.853646
1852,7.4997044,-2.8546374,12.732509
1853,7.5957165,-3.036791,10.796715
1854,10.652248,-2.004288,10.593325
1855,10.609178,-3.065505,7.9630146
1856,9.128918,-3.8847475,3.1049864
1857,6.960721,-4.256233,0.71665037
1858,3.3675988,-4.241577,0.74536425
1859,1.3722838,-3.6044881,-0.60329044
1860,-0.05802595,-2.0545373,-1.8897316
1861,-1.0088738,-0.6029913,-3.039483
1862,-1.2699906,0.72412795,-3.353242
1863,-1.7036897,1.3686945,-2.9629126
1864,-2.9012976,1.6441683,-0.148355
1865,-3.7109687,0.60687965,4.1590247
1866,-1.428216,-4.3351965,5.8453665
1867,0.68464637,-7.5571322,3.3179476
1868,3.3747773,-14.92553,1.1213365
1869,9.744472,-33.354153,4.8248277
1870,10.04148,-74.37491,7.6492558
1871,-4.518247,-74.940216,1.8496519
1872,-23.129025,-57.11997,6.899405
1873,-29.405098,-41.70241,2.8869405
1874,-11.812767,-26.043182,1.6651055
1875,-4.1279182,-16.92593,7.768897
1876,8.498708,-14.650057,1.0112667
1877,17.18974,-13.378271,-12.717254
1878,8.438888,-10.105787,-5.569295
1879,0.08823533,-6.8336024,-4.766802
1880,-2.283351,-1.6833507,-7.016055
1881,-0.587438,-0.08793623,-6.759724
1882,1.3528421,3.644269,-6.853343
1883,2.0045872,7.0842505,-7.238887
1884,-0.30239296,9.496515,-8.573184
1885,-1.7587247,9.846166,-18.972092
1886,-2.4272194,10.406685,-22.452753
1887,-2.2929223,11.233106,-18.610178
1888,-2.3814569,10.859527,-13.361821
1889,-2.556432,10.167104,-8.717052
1890,-1.9456639,8.607881,-6.180063
1891,-1.6534405,5.4960146,-3.9786658
1892,-1.1359925,1.061815,-3.0155547
1893,-1.9671993,-1.0534402,0.048155557
1894,-2.705086,-2.0018952,1.0974083
1895,-2.5229323,-2.725425,2.3982065
1896,2.4188447,-12.551551,75.07301
1897,-3.737589,-19.242481,2.716751
1898,9.250952,-7.8254275,-29.960234
1899,1.6932211,-11.794821,-3.106781
1900,-0.369392,-18.085253,13.654642
1901,-1.3875381,-19.460228,-23.7033
1902,-10.933405,-30.055647,-16.353746
1903,-15.83241,-40.037605,-12.839587
1904,-3.859623,-27.293732,-5.332106
1905,0.8452646,-17.867207,-14.188242
1906,1.6932211,-15.610775,-17.208881
1907,3.0442686,-16.070795,-20.967407
1908,3.3340993,-19.084255,-13.919947
1909,7.3585277,-20.49034,-11.706586
1910,12.046367,-24.014069,-8.707183
1911,15.960725,-28.362127,-10.228419
1912,12.5805645,-31.29184,-11.869298
1913,9.81147,-38.71527,-13.948661
1914,6.769295,-42.052364,10.439885
1915,5.423033,-36.751064,43.320557
1916,-2.8079774,-22.030718,78.709206
1917,-16.548462,-15.89582,44.949474
1918,-24.63351,-11.849856,19.31277
1919,-13.75544,-6.8048887,8.350951
1920,-3.054737,-5.2980084,13.930116
1921,2.289632,-2.7349963,17.913866
1922,6.5943203,-2.0688944,15.343377
1923,10.939686,-3.1157541,9.634999
1924,13.6657095,-3.9397824,4.731508
1925,11.562717,-4.7374897,0.6230312
1926,7.8424764,-4.464409,-1.5616158
1927,3.85394,-3.609274,0.20877378
1928,1.0654043,-2.806781,0.71425754
1929,-0.010169496,-1.6091732,-0.7830512
1930,-0.10109676,-0.7609176,-2.158027
1931,-0.010169496,0.60687965,-3.0179477
1932,-0.90119684,1.2080764,-2.9150562
1933,-1.428216,1.2367902,-1.5664015
1934,-1.5023935,-1.666601,1.6794624
1935,-0.6903293,-3.592524,2.0868404
1936,0.3684947,-6.7115684,2.5226333
1937,1.6019948,-16.164116,9.397811
1938,4.749753,-42.4403,14.548062
1939,1.0845468,-74.15447,1.7802601
1940,-12.775579,-68.40511,-4.1632123
1941,-25.35435,-54.104115,5.3757753
1942,-23.227129,-37.34508,8.595318
1943,-10.751551,-23.032114,4.371986
1944,-4.1111684,-15.294623,11.810075
1945,12.175878,-13.509876,5.5316076
1946,21.702602,-13.761422,-12.190534
1947,8.616255,-10.335797,-3.013162
1948,3.5641093,-6.2922263,-3.0107691
1949,7.586145,-4.569992,-7.1021967
1950,7.62443,-0.5910272,-11.109876
1951,6.1151576,3.0598218,-12.326925
1952,3.4704902,4.705486,-11.7018
1953,-3.2081769,7.9561353,-12.358031
1954,-7.0815587,9.623335,-12.528221
1955,-6.6768723,10.715658,-19.482363
1956,-4.9734817,10.99861,-22.862225
1957,-3.1169505,10.377971,-19.067806
1958,-1.1120644,9.316754,-13.577474
1959,-0.22313072,7.70459,-9.816555
1960,-0.64965135,5.009673,-5.7607207
1961,-1.0256236,1.6489539,-4.613362
1962,-1.3301103,-1.5275182,-2.5749762
1963,-2.664408,-3.3242288,1.0256236
1964,-2.3168504,-3.8823547,3.083451
1965,14.499608,-6.678069,78.709206
1966,-9.12503,-17.58216,-12.655041
1967,1.8798612,-12.851253,-11.850155
1968,-1.8257236,-18.190836,16.287346
1969,-6.59761,-20.380268,6.7148585
1970,-1.820938,-17.218153,-18.387646
1971,-13.611571,-28.7046,-17.292929
1972,-14.811872,-37.083965,-13.136597
1973,-1.7922242,-25.954649,-15.699907
1974,2.3422742,-19.177576,-20.37339
1975,1.4536397,-17.23251,-16.454245
1976,0.8500503,-18.353548,-13.879269
1977,1.3746766,-21.034107,-10.206884
1978,3.4202409,-21.527628,-9.936196
1979,13.323236,-23.786451,-11.601003
1980,20.481066,-29.971899,-13.352249
1981,12.812967,-35.10301,-21.877876
1982,5.6336017,-42.22943,3.6750765
1983,8.113164,-38.811283,31.366915
1984,4.759324,-25.748566,64.937614
1985,-6.8395844,-14.743676,46.779682
1986,-17.873188,-12.980465,30.046972
1987,-23.181665,-9.032606,11.204093
1988,-9.714262,-4.095615,11.017154
1989,-0.089132644,-3.5422747,16.632212
1990,5.183452,-3.932604,14.160126
1991,9.044869,-4.112365,11.72154
1992,9.152845,-3.9349968,11.060225
1993,10.942079,-3.4271202,9.393025
1994,9.993624,-3.6236308,1.9645073
1995,9.387342,-3.5303106,-3.05384
1996,6.278168,-3.187838,-2.0117657
1997,3.1519456,-2.4858437,-0.4956134
1998,1.4081762,-1.4437693,-0.054735817
1999,0.44985065,-0.061615184,-0.38763726
2000,-0.19441684,1.0378869,-1.4129617
2001,-0.79112697,1.7087744,-1.422533
2002,-2.3431716,2.2764716,2.364707
2003,-3.4573295,2.259722,5.35424
2004,-2.1780667,0.8632108,1.1596217
2005,-0.4339982,-1.5972091,0.45792642
2006,0.8596215,-6.067002,0.86261255
2007,3.3149567,-11.612667,-0.04755735
2008,7.7177505,-28.709385,-2.4741786
2009,14.928223,-73.53384,12.583855
2010,-0.26889345,-77.65906,2.4077778
2011,-22.855944,-64.188965,9.786046
2012,-28.720154,-47.566624,14.373386
2013,-27.196524,-36.50191,3.2413774
2014,-12.641582,-21.477377,2.2064817
2015,-4.8179483,-14.901602,5.620142
2016,13.811971,-12.621243,-6.0460644
2017,20.576778,-10.1802635,-11.155639
2018,4.7042894,-6.081359,-4.462614
2019,0.7372885,-3.1540394,-3.8180475
2020,1.8774685,0.48454657,-7.5526457
2021,2.1098714,3.9963129,-6.0915284
2022,3.0011978,8.583653,-10.08485
2023,1.5206388,10.926525,-9.37807
2024,-0.8461619,12.2991085,-8.383852
2025,-3.0212376,11.7050905,-14.592928
2026,-2.7792635,10.720444,-20.490936
2027,-1.9911275,9.62812,-16.303497
2028,-1.2293127,8.588439,-12.767802
2029,-1.2293127,6.4854465,-8.79123
2030,-1.2963116,3.275475,-7.0543404
2031,-1.090529,1.198505,-6.443572
2032,-2.0461624,-1.2711871,-4.438686
2033,-3.1695926,-3.242873,-1.8083757
2034,-3.9864426,-3.7914274,0.39332023
2035,-3.99392,-5.032106,2.623431
2036,1.4464613,-15.30898,74.91479
2037,-1.9073788,-22.998615,16.58914
2038,11.634501,-9.64128,-45.722652
2039,0.49292147,-6.2611194,-11.457433
2040,-1.250848,-4.1889353,-1.7820547
2041,-0.27367908,-6.122037,-3.3460634
2042,-7.2206416,-17.055143,-7.509575
2043,-19.782661,-44.878883,-19.288244
2044,-24.30031,-58.425552,-21.405891
2045,1.4464613,-32.319256,-0.44057846
2046,4.536493,-19.522741,-11.375778
2047,4.1150565,-15.53899,-14.264812
2048,2.2752752,-16.844574,-14.638691
2049,8.381459,-17.254045,-18.260527
2050,13.857434,-21.918255,-14.370396
2051,13.838291,-26.541489,-12.64547
2052,11.92194,-30.261728,-17.453249
2053,9.880862,-34.992638,10.588539
2054,12.130414,-32.78406,32.06891
2055,12.999907,-26.021646,39.61946
2056,2.2489543,-21.154047,34.81168
2057,-9.211171,-17.551056,26.048866
2058,-12.576975,-11.416157,14.260625
2059,-17.355742,-6.5485573,3.3251262
2060,-13.532608,-1.5900307,9.579965
2061,-2.556432,-2.5648067,14.804394
2062,4.759324,-3.9278183,14.540884
2063,7.6363945,-5.195117,17.31267
2064,7.739286,-5.3389854,19.25295
2065,8.906086,-4.692026,16.263418
2066,11.541182,-5.3075795,2.7957141
2067,9.480962,-6.4887366,-2.8624141
2068,6.311668,-5.698208,-3.487539
2069,3.8060834,-4.5891347,-2.9006991
2070,1.041476,-3.024827,-2.7592237
2071,-0.58983076,-1.1084751,-3.4923246
2072,-1.320539,0.32662028,-3.3149567
2073,-1.5816557,1.2080764,-2.6611178
2074,-1.971985,1.6896319,-1.492224
2075,-1.4330016,1.3325031,1.5000007
2076,0.13130614,-2.6461627,3.7420754
2077,0.3469593,-6.347261,3.559922
2078,3.1304102,-10.807781,-0.82612205
2079,4.42403,-23.379374,-1.20688
2080,9.605389,-65.1425,16.701603
2081,-0.34067813,-72.17082,-0.75194454
2082,-19.40639,-61.75277,6.3125653
2083,-28.890343,-50.048576,8.449356
2084,-16.84577,-31.761131,5.9961143
2085,-7.021738,-20.03032,4.4895334
2086,-0.46031925,-16.056438,5.394918
2087,5.8277197,-14.207086,2.7215366
2088,19.02952,-10.129716,-11.332707
2089,8.318947,-7.111469,-4.304389
2090,0.86919284,-4.1578283,-3.6457644
2091,0.03798606,-1.0363913,-6.369395
2092,1.829612,1.3396816,-6.0170517
2093,2.0644078,5.59412,-9.126525
2094,1.7793628,7.948957,-8.350353
2095,-0.42203408,11.137393,-7.5789666
2096,-2.3551357,11.573485,-12.865909
2097,-2.204388,10.485947,-23.679073
2098,-2.0916262,10.648659,-19.209282
2099,-2.3407788,9.632906,-13.677973
2100,-1.6366907,7.3166533,-9.014062
2101,-2.187638,3.8814573,-7.1623163
2102,-2.5109682,1.4979069,-5.825626
2103,-2.5995028,-1.2089736,-3.7247276
2104,-4.3172503,-3.6906297,0.04336991
2105,-4.511069,-4.6824546,3.8593237
2106,1.1997014,-13.339687,78.709206
2107,-3.004488,-22.936102,4.913362
2108,10.290633,-11.662917,-44.644688
2109,-1.605584,-7.463513,-14.660226
2110,-0.23748764,-3.6068811,-4.2924247
2111,-1.9815563,-6.268298,-1.9830518
2112,-8.820842,-18.375084,-8.618649
2113,-23.021347,-44.402412,-22.876581
2114,-17.84926,-54.616776,-14.214563
2115,-1.3372887,-34.01547,0.11515459
2116,2.8094728,-18.514166,-5.116453
2117,2.169991,-15.043077,-15.400506
2118,1.3938192,-16.667206,-14.521143
2119,2.4526432,-19.227825,-13.615759
2120,10.233205,-20.454447,-13.972589
2121,12.2069845,-26.00729,-11.16521
2122,13.636995,-30.48456,-16.828123
2123,11.078769,-35.96532,3.9433718
2124,16.447067,-33.402008,23.979374
2125,15.419349,-28.445875,35.281273
2126,5.497211,-22.521845,39.7729
2127,-5.1412787,-19.529919,31.26163
2128,-10.761122,-12.918251,24.415165
2129,-18.199211,-8.589635,6.520741
2130,-17.147566,-4.6992044,9.469596
2131,-17.147566,-4.6992044,9.469596
2132,1.3289139,-5.29083,14.507384
2133,1.3289139,-5.29083,14.507384
2134,7.7703924,-4.962714,17.267206
2135,8.338388,-4.867001,17.93301
2136,11.663216,-4.529314,2.1801605
2137,10.098908,-5.655137,-4.0624146
2138,7.8831544,-5.4634123,-4.9510493
2139,3.28385,-3.9373896,-3.2790644
2140,1.6621144,-2.5959134,-1.6740786
2141,1.6621144,-2.5959134,-1.6740786
2142,1.6621144,-2.5959134,-1.6740786
2143,-0.18245272,1.320539,-2.670689
2144,-1.2723835,1.4356936,-1.7171494
2145,-1.2723835,1.4356936,-1.7171494
2146,-3.2105699,1.8044873,4.8918266
2147,-3.2105699,1.8044873,4.8918266
2148,-1.0642079,-4.0477586,3.4713874
2149,-1.0642079,-4.0477586,3.4713874
2150,2.3662026,-8.510373,-1.817947
2151,2.3662026,-8.510373,-1.817947
2152,7.5789666,-77.65906,4.616353
2153,7.5789666,-77.65906,4.616353
2154,-24.020052,-69.959854,14.289339
2155,-27.742685,-64.93881,12.4426775
2156,-6.7151575,-21.319153,17.336597
2157,-0.18005991,-19.35255,7.5963144
2158,2.6895328,-18.44238,1.5837495
2159,11.207981,-11.344372,-9.440284
2160,6.745367,-10.429417,-7.3226357
2161,0.83090764,-4.200899,-9.919446
2162,1.2451651,-2.7828526,-9.308679
2163,3.6047873,3.8671005,-11.378171
2164,3.6047873,3.8671005,-11.378171
2165,-2.9183464,11.52533,-10.707582
2166,-2.9183464,11.52533,-10.707582
2167,-2.9183464,11.52533,-10.707582
2168,-5.162814,13.537693,-20.589043
2169,-4.0824547,12.107682,-16.456638
2170,-4.0824547,12.107682,-16.456638
2171,-2.8630123,6.6361947,-6.910771
2172,-2.8630123,6.6361947,-6.910771
2173,-2.8199415,0.90388876,-2.498107
2174,-2.9207392,0.4941179,-1.6477575
2175,-3.5793636,-3.226123,1.495215
2176,-3.3780673,-3.4390843,1.8185452
2177,2.9004002,-19.0364,51.632927
2178,-3.9768713,-17.871992,-33.893734
2179,-3.9768713,-17.871992,-33.893734
2180,0.8787641,-8.841181,-3.0681968
2181,1.4201403,-10.920244,-2.6347969
2182,-4.1997027,-17.886349,-10.1016
2183,-11.927623,-30.55156,-10.659726
2184,-17.034803,-42.555454,-13.282858
2185,-4.892126,-36.384663,-5.432605
2186,-4.892126,-36.384663,-5.432605
2187,4.395316,-15.586846,-17.721544
2188,3.255136,-16.324734,-13.234702
2189,1.9998015,-17.95604,-10.27149
2190,1.9375881,-18.097218,-9.926624
2191,14.041981,-18.111574,-13.613366
2192,17.733507,-19.280767,-14.983557
2193,12.477673,-31.826036,-12.013166
2194,12.477673,-31.826036,-12.013166
2195,11.08834,-35.673096,30.686754
2196,11.08834,-35.673096,30.686754
2197,-16.39532,-23.757738,44.14698
2198,-24.98077,-15.246767,20.939291
2199,-16.30918,-6.392725,6.5422764
2200,-12.658331,-5.1735816,6.0634127
2201,-0.22313072,-5.762814,10.990832
2202,-0.22313072,-5.762814,10.990832
2203,6.862615,-4.069294,11.165808
2204,6.862615,-4.069294,11.165808
2205,8.333603,-2.2701905,16.31606
2206,8.333603,-2.2701905,16.31606
2207,14.171193,-4.910072,-1.5903298
2208,11.4954195,-5.8393846,-3.7989051
2209,6.3882384,-4.316054,-2.606083
2210,6.3882384,-4.316054,-2.606083
2211,3.8898323,-3.2165518,-2.2034905
2212,0.93619186,-1.7982062,-1.0776675
2213,-1.3995022,0.6978069,-2.2728825
2214,-1.6414764,0.95653087,-2.1388843
2215,-4.072883,1.9100707,1.4063815
2216,-4.072883,1.9100707,1.4063815
2217,-1.3325031,-4.450052,2.1394825
2218,0.44027936,-8.373981,1.0399805
2219,2.3207388,-12.518052,0.34277186
2220,8.36471,-32.12065,0.9200403
2221,11.608181,-64.241905,11.901301
2222,10.582856,-72.16843,7.4383883
2223,-23.18406,-66.25158,12.210275
2224,-23.18406,-66.25158,12.210275
2225,-19.451853,-32.230724,3.8353956
2226,-19.451853,-32.230724,3.8353956
2227,3.5401812,-15.620346,7.0022964
2228,3.5401812,-15.620346,7.0022964
2229,15.867405,-10.985149,-6.8389864
2230,15.867405,-10.985149,-6.8389864
2231,0.8380861,-3.281158,-5.6937213
2232,0.8380861,-3.281158,-5.6937213
2233,2.9506495,4.106682,-8.185248
2234,2.3973093,8.382656,-11.236994
2235,2.3973093,8.382656,-11.236994
2236,-2.6883361,13.829917,-10.247562
2237,-3.4043884,13.659727,-10.985449
2238,-3.778267,12.850056,-23.058735
2239,-2.635395,11.249856,-18.040089
2240,-2.1254246,9.968499,-13.553546
2241,-1.1359925,7.309475,-8.903693
2242,-1.6031911,3.5437703,-5.8375897
2243,-1.9695921,0.78634137,-4.4339004
2244,-1.9791634,-1.1922239,-3.693621
2245,-2.242673,-1.9540387,-3.3583267
2246,-3.9194436,-4.61067,0.41964126
2247,-3.9194436,-4.61067,0.41964126
2248,2.6392834,-17.838493,76.268234
2249,3.1710882,-19.855642,62.213985
2250,6.3834524,-20.435303,-11.13171
2251,2.4382863,-19.18954,0.9945169
2252,-5.3904314,-18.65295,-7.559824
2253,-7.8433733,-23.075186,-5.406284
2254,-14.7711935,-32.57798,-6.055636
2255,-7.5583286,-26.529524,-7.6630144
2256,0.8333005,-16.226328,-14.818152
2257,3.7196429,-11.871391,-19.918156
2258,3.336492,-12.029616,-18.145672
2259,5.2289157,-13.866706,-14.11885
2260,5.2289157,-13.866706,-14.11885
2261,8.208878,-16.85893,-10.963913
2262,8.208878,-16.85893,-10.963913
2263,17.05544,-27.820751,-15.738193
2264,17.05544,-27.820751,-15.738193
2265,10.431809,-42.742092,-15.671194
2266,10.431809,-42.742092,-15.671194
2267,4.3064823,-40.590946,58.359447
2268,2.1242282,-32.65724,75.13523
2269,-20.88695,-14.4490595,17.693428
2270,-16.194025,-7.5786676,3.2413774
2271,-16.194025,-7.5786676,3.2413774
2272,-0.28085756,-3.906283,15.8105755
2273,5.4876394,-4.1841493,12.179168
2274,8.9108715,-4.9531426,11.615957
2275,8.9108715,-4.9531426,11.615957
2276,10.508678,-3.9086757,14.064413
2277,9.234201,-4.665705,7.2155566
2278,8.958728,-5.137689,0.3786642
2279,8.958728,-5.137689,0.3786642
2280,4.3211384,-3.441477,-0.7304091
2281,1.1757733,-2.9338996,-0.69212395
2282,-0.5587241,-2.1577277,-1.7868403
2283,-2.1900308,-1.2472588,-4.2110686
2284,-2.1900308,-1.2472588,-4.2110686
2285,-1.3803595,-2.4643083,-0.148355
2286,-0.59940207,-5.645566,2.4197419
2287,1.0462617,-9.576375,0.13938192
2288,3.0993035,-14.166408,-2.3665016
2289,3.1998022,-23.396122,-4.733302
2290,2.265704,-38.18825,7.562815
2291,-5.9557357,-59.613586,6.053841
2292,-20.60669,-56.99554,2.9515467
2293,-24.417858,-49.636414,9.440882
2294,-20.735903,-36.68646,-0.15074782
2295,-8.01117,-21.829422,4.295416
2296,2.4502504,-14.302798,9.112766
2297,11.75175,-15.883856,8.86122
2298,23.664717,-15.769,-6.7908306
2299,16.21227,-12.441482,-6.965806
2300,3.987938,-8.95125,-2.3808584
2301,5.9763737,-5.2429733,-5.332106
2302,8.783752,0.75284183,-11.71855
2303,5.171488,6.562017,-11.014163
2304,1.0845468,11.274083,-11.373385
2305,-3.2943187,13.870595,-13.879269
2306,-5.009374,15.497116,-22.560429
2307,-4.7434716,15.427724,-25.468607
2308,-4.5616174,13.674084,-20.905193
2309,-2.9566314,9.822238,-16.569399
2310,-1.5167505,4.892425,-11.308779
2311,-1.5167505,4.892425,-11.308779
2312,-2.5396821,-0.212363,-5.997909
2313,-3.004488,-2.7014968,-2.6371896
2314,-3.7061832,-4.0788655,0.3188436
2315,-4.3986063,-5.602495,2.5851457
2316,-4.3986063,-5.602495,2.5851457
2317,-2.8438697,-15.212968,58.371414
2318,-4.537689,-21.831814,9.943973
2319,-4.537689,-21.831814,9.943973
2320,3.4896326,-5.930611,-18.025732
2321,1.7243278,-6.2898335,-12.755838
2322,-2.3024936,-11.998211,-0.23449662
2323,-2.7601209,-12.379268,-3.894917
2324,-15.185451,-40.50959,-16.64597
2325,-15.185451,-40.50959,-16.64597
2326,0.4642076,-25.542484,-10.235598
2327,0.4642076,-25.542484,-10.235598
2328,3.5330026,-15.567704,-13.802698
2329,3.5330026,-15.567704,-13.802698
2330,5.0587263,-20.643778,-12.391531
2331,14.595321,-22.778175,-14.070993
2332,14.595321,-22.778175,-14.070993
2333,17.422142,-34.872997,-18.05923
2334,14.820545,-38.58606,6.4106708
2335,19.0367,-38.17629,24.803402
2336,19.0367,-38.17629,24.803402
2337,5.918946,-23.860928,53.76254
2338,-3.694219,-21.175583,43.710888
2339,-12.401999,-11.0353985,19.672293
2340,-12.401999,-11.0353985,19.672293
2341,-16.625332,-8.124829,10.760822
2342,-1.6319051,-5.793921,9.982258
2343,7.126125,-5.8393846,9.8937235
2344,7.126125,-5.8393846,9.8937235
2345,5.5833526,-2.0210378,13.556537
2346,6.735796,-1.5203397,14.773287
2347,11.179267,-3.8129628,1.4566308
2348,11.179267,-3.8129628,1.4566308
2349,6.745367,-4.8239303,-2.3904297
2350,6.745367,-4.8239303,-2.3904297
2351,1.7793628,-2.3132613,-1.7027924
2352,0.33020952,-0.30119655,-1.5352948
2353,-0.22313072,0.7408777,-2.3569303
2354,-1.1934203,1.2272189,-2.1484556
2355,-2.3913271,1.6295122,0.8650054
2356,-3.1695926,1.8164514,3.083451
2357,-2.405684,0.86081797,2.1203399
2358,-1.5215361,-2.885744,3.2940195
2359,-1.3277174,-3.566203,3.1743784
2360,1.6429719,-7.576275,-0.45014977
2361,2.2226331,-9.815957,-0.49800622
2362,12.619148,-77.65906,2.8582265
2363,12.619148,-77.65906,2.8582265
2364,-23.58665,-64.507805,14.842978
2365,-23.58665,-64.507805,14.842978
2366,-18.630219,-30.640095,7.0935225
2367,-13.214064,-26.632416,8.770293
2368,11.057234,-16.46591,-4.2038903
2369,11.057234,-16.46591,-4.2038903
2370,4.5269213,-8.991928,-5.727221
2371,-0.78634137,-4.948357,-5.7487564
2372,-0.49860442,-2.047359,-8.76491
2373,2.0931215,0.6858428,-8.429316
2374,2.0931215,0.6858428,-8.429316
2375,1.2044871,9.968499,-11.653944
2376,-4.1518464,12.842877,-9.351749
2377,-4.1518464,12.842877,-9.351749
2378,-5.6276197,12.040384,-23.231318
2379,-5.6276197,12.040384,-23.231318
2380,-2.6548367,11.24507,-13.563117
2381,-1.7563318,8.883354,-8.647362
2382,-0.8892327,4.202395,-6.134599
2383,-1.0666007,1.7542381,-4.1751766
2384,-1.943271,-0.3610171,-1.654936
2385,-2.9036903,-1.9971097,0.38584265
2386,-3.4908292,-2.5911279,1.468894
2387,-4.221238,-3.716951,3.4259238
2388,-0.053240303,-12.039188,66.432236
2389,-4.278965,-19.388443,3.7109687
2390,3.0418758,-13.902898,-35.606396
2391,7.3609204,-22.356441,-2.0117657
2392,1.4297116,-26.948566,-3.5162528
2393,-3.1552358,-24.395126,-16.777874
2394,-7.7476606,-35.22504,-5.93091
2395,-12.090633,-35.512478,-1.3531412
2396,-6.8371916,-20.001604,-8.431708
2397,-0.5515456,-12.887144,-16.521544
2398,1.9136599,-11.588739,-14.911772
2399,1.8415761,-13.085749,-10.235598
2400,2.0787647,-14.671592,-8.656933
2401,4.8673005,-15.661024,-8.412566
2402,12.690933,-19.850857,-12.595221
2403,20.950657,-26.553452,-14.104493
2404,12.87548,-34.2383,-17.561224
2405,9.68465,-38.794533,-16.81616
2406,9.868897,-42.82375,2.0629122
2407,9.176774,-38.58845,34.16741
2408,-6.8778696,-24.234509,62.671314
2409,-15.38914,-21.096321,47.10062
2410,-20.659332,-11.837892,12.454642
2411,-18.297316,-6.5724854,4.0941195
2412,-9.857831,-6.7929244,14.2031975
2413,1.8248264,-4.871787,12.665211
2414,5.466104,-4.8789654,12.871292
2415,7.1452675,-3.9302113,16.083656
2416,9.320343,-3.403192,15.973587
2417,10.657034,-3.4079776,9.579965
2418,12.640684,-3.863212,1.1500504
2419,10.367203,-3.987639,-3.025126
2420,5.9237313,-3.2452657,-1.4344971
2421,2.3279173,-2.3635106,-0.3804588
2422,0.6367899,-1.2927225,-0.3397808
2423,-0.18723837,-0.16211374,-1.5927225
2424,-0.90119684,0.8847462,-2.3928227
2425,-2.1278176,1.5625132,-1.695614
2426,-3.138486,1.4883357,1.2891332
2427,-2.420041,0.40797627,1.4063815
2428,-0.4316054,-3.9684963,3.0690942
2429,0.36370903,-5.712565,2.0054846
2430,1.8894325,-10.881959,0.30209386
2431,7.9022965,-27.631418,6.1495543
2432,12.9185505,-70.1133,6.38435
2433,-0.17288144,-77.443405,4.0869412
2434,-20.577677,-62.65606,16.924435
2435,-23.706291,-47.81099,9.170194
2436,-14.184354,-28.819454,4.523033
2437,-2.9662027,-19.659132,11.06501
2438,11.260623,-16.40609,-4.074379
2439,18.785152,-12.937394,-14.0036955
2440,8.735896,-11.210075,-9.126525
2441,-0.56111693,-6.6442704,-5.5094743
2442,-1.0833504,-4.366303,-9.457033
2443,2.2585254,0.48454657,-8.886943
2444,3.920939,4.6265225,-11.469398
2445,0.31345975,8.761021,-11.634501
2446,-3.897908,11.707483,-12.686148
2447,-5.83101,14.234902,-14.420645
2448,-6.561718,13.918451,-20.529222
2449,-4.3411784,12.519547,-23.257637
2450,-2.8438697,11.978171,-19.673788
2451,-1.3564314,10.663016,-13.541581
2452,-1.0666007,8.032705,-7.751549
2453,-2.420041,4.3797626,-3.9188452
2454,-2.7266214,1.3277174,-3.5976088
2455,-2.8845477,-2.1481566,-1.791626
2456,-3.493222,-3.2069805,0.51535416
2457,-3.016452,-4.701597,2.1562324
2458,4.7306104,-17.115263,77.56424
2459,-4.6429734,-27.375088,-13.728222
2460,11.909976,-21.834208,-14.482858
2461,2.716153,-23.719452,1.317847
2462,-4.1662035,-20.921644,-16.083057
2463,-9.2997055,-26.400013,-12.3245325
2464,-16.06242,-34.190144,-9.246465
2465,-9.977772,-29.801708,-6.419644
2466,-0.94426763,-14.506487,-14.475679
2467,1.5732809,-9.638887,-25.561926
2468,2.0285153,-9.583553,-23.15684
2469,4.0405803,-12.649956,-12.448959
2470,0.5479564,-16.017855,-7.289136
2471,0.35413775,-17.685352,-6.5754766
2472,5.588138,-20.715563,-10.846366
2473,12.113665,-26.711378,-14.564214
2474,11.131411,-33.783066,-13.809876
2475,13.256237,-40.456947,-16.962122
2476,15.493526,-45.61677,-4.7213383
2477,7.0615187,-41.297726,43.82365
2478,-2.1924238,-24.62753,75.207016
2479,-13.247563,-16.221542,45.244087
2480,-19.801804,-9.655638,16.675282
2481,-11.949158,-5.168796,6.020342
2482,-3.8811584,-5.6527443,14.6225395
2483,4.1007,-3.8536408,12.785151
2484,8.505886,-4.004688,10.813464
2485,9.468997,-3.4704902,12.919148
2486,10.393524,-3.132504,13.273885
2487,10.942079,-3.1755748,7.033403
2488,11.898011,-3.8009987,1.0375878
2489,9.835399,-4.1315074,-1.4249259
2490,6.256633,-3.7674992,-0.70648086
2491,2.565106,-3.1277182,0.6903293
2492,0.30867413,-1.8388842,0.5943173
2493,-1.3034902,-0.45194438,-0.8979067
2494,-1.8882362,0.71455663,0.14895321
2495,-1.576571,1.7757735,-0.35413775
2496,-1.9073788,0.74566334,-0.33020952
2497,-0.31914273,-3.867998,1.4712868
2498,1.4440684,-8.654242,1.7778672
2499,4.749753,-14.245371,-1.0920244
2500,8.848359,-23.242683,-0.84047896
2501,14.053945,-51.593445,6.940083
2502,3.7773697,-66.091255,-1.8538394
2503,-15.801304,-59.25915,11.050653
2504,-34.227234,-54.33412,8.118548
2505,-28.523642,-43.499123,10.008579
2506,-14.150555,-25.815565,3.5144582
2507,0.3182454,-16.648064,6.626324
2508,10.848759,-15.857534,-2.3425734
2509,19.005293,-13.306188,-13.285251
2510,9.042477,-9.976575,-6.498607
2511,2.6799614,-6.7642107,-3.5162528
2512,3.1663027,-1.6187445,-7.0399833
2513,4.0504503,1.6079768,-10.075279
2514,3.3891342,5.8672013,-13.290036
2515,1.3456637,8.327621,-11.129317
2516,-2.9255247,13.036995,-12.353246
2517,-5.6611195,13.255041,-15.040984
2518,-5.421538,12.435799,-25.566711
2519,-3.7686956,12.143575,-22.546072
2520,-2.2642083,10.65823,-16.80898
2521,-1.090529,8.765806,-10.096814
2522,-2.2642083,4.9474597,-6.4627147
2523,-3.1360931,1.9387846,-4.340281
2524,-3.2368908,-0.5407779,-2.986841
2525,-3.3373895,-2.8402805,-1.5879369
2526,-3.6439698,-3.6116667,0.46749774
2527,-3.0978081,-4.989035,2.184946
2528,3.3963127,-15.732809,75.45617
2529,-5.395217,-21.882065,-9.840483
2530,8.357532,-13.241581,-22.402502
2531,5.9452667,-17.455341,8.523534
2532,-1.265205,-22.188944,-1.7676977
2533,-5.124529,-22.481167,-15.771692
2534,-13.3842535,-34.91846,-13.869698
2535,-13.300205,-36.86592,-6.17767
2536,-2.2354946,-22.567308,-5.875875
2537,3.05384,-13.799707,-20.617756
2538,2.00698,-12.41516,-19.798513
2539,3.6933217,-14.132608,-14.111671
2540,2.2609184,-17.007286,-9.078669
2541,3.892225,-17.12244,-9.814162
2542,14.609677,-18.758533,-14.720047
2543,19.747965,-24.16751,-13.886447
2544,12.377174,-30.51806,-11.58186
2545,9.207881,-35.349766,-15.9128685
2546,10.082158,-43.635815,-6.778867
2547,5.971588,-42.96971,39.454056
2548,-3.354139,-27.264719,78.709206
2549,-14.569897,-16.10908,49.055256
2550,-20.09642,-11.686845,14.825929
2551,-11.273784,-5.726922,1.0519446
2552,-0.5491528,-6.895816,11.826825
2553,6.73101,-3.5446677,7.711469
2554,8.800503,-3.403192,10.746466
2555,7.6459656,-1.7144574,14.723038
2556,9.435498,-1.3839488,17.027624
2557,11.7158575,-2.1720848,11.386247
2558,11.706286,-4.2296133,0.23748764
2559,10.161121,-5.0754757,-2.630011
2560,5.9285173,-4.0334015,-2.00698
2561,2.0835502,-2.7900312,-1.8658035
2562,0.02841477,-1.6953149,-1.7386848
2563,-1.2029916,-0.9837492,-2.2034905
2564,-2.4990041,0.005383851,-3.3631122
2565,-3.5482569,0.84406817,-3.025126
2566,-4.7099724,-0.61016977,-0.31345975
2567,-2.6668007,-4.2945185,2.309672
2568,-0.23988047,-9.111869,2.4412773
2569,1.6043876,-14.154144,0.13220344
2570,4.752146,-22.529024,-2.6946175
2571,6.8985076,-41.601913,-6.707082
2572,0.55752766,-65.79874,9.7812605
2573,-16.388144,-59.460445,4.4775696
2574,-27.690042,-51.255756,9.342776
2575,-26.693432,-42.979282,2.1945174
2576,-19.114166,-28.024141,-3.3990045
2577,-5.946164,-19.754845,1.6914265
2578,8.391031,-14.307584,7.057331
2579,19.690538,-14.283656,-7.5622168
2580,16.444674,-10.6663065,-6.6257257
2581,4.5006003,-6.7642107,-3.676871
2582,0.89312106,-4.323232,-4.963312
2583,2.0452652,-1.0749756,-3.9212382
2584,3.7941194,3.4692938,-7.0806613
2585,4.028616,7.6423764,-9.665508
2586,2.1891336,11.860923,-10.460822
2587,0.7540382,13.485051,-12.834802
2588,0.8668,13.190434,-22.548466
2589,0.052342996,13.623835,-23.887548
2590,-0.51086766,12.854841,-19.959131
2591,-0.012562319,10.337293,-15.637395
2592,-0.21595225,6.693622,-9.768399
2593,-1.468894,3.0693932,-6.9012
2594,-2.3913271,0.24496523,-5.3703914
2595,-2.3575284,-1.7623138,-3.6167514
2596,-2.8606195,-3.6930227,-1.3435699
2597,-3.3326037,-5.8298135,1.3034902
2598,-3.859623,-15.141184,78.709206
2599,-3.5650067,-24.845276,39.14269
2600,4.587041,-14.726926,-47.222057
2601,1.0127622,-11.871391,-12.137593
2602,-1.5984055,-13.23201,8.58814
2603,-13.506288,-21.041286,24.839294
2604,-1.6510476,-22.907389,-17.860626
2605,-11.328819,-36.69603,-16.203
2606,-14.404493,-38.990746,-15.903297
2607,0.58654064,-21.501307,-17.937197
2608,9.423533,-14.293227,-24.167809
2609,8.685647,-13.426127,-19.558931
2610,3.882654,-16.569101,-8.362317
2611,3.1136606,-18.243479,-7.5646095
2612,3.3053854,-19.762024,-7.4880395
2613,13.3639145,-21.237797,-8.729017
2614,18.677177,-26.395227,-10.508678
2615,20.81636,-28.560732,-11.591431
2616,11.555539,-40.059143,-10.695618
2617,11.936296,-42.90032,15.669399
2618,7.6076803,-32.24508,63.715782
2619,-3.464508,-16.446768,56.893547
2620,-13.935201,-13.830814,35.58546
2621,-21.152851,-9.353843,5.6727843
2622,-13.106387,-5.2286167,1.7778672
2623,-4.400999,-3.9110687,12.49532
2624,4.7425747,-4.41416,11.90848
2625,6.9945197,-5.0587263,13.20898
2626,6.9320073,-3.9421754,18.016758
2627,9.404391,-3.67388,17.195122
2628,11.387742,-3.9110687,10.109377
2629,11.196017,-5.113761,-0.7160522
2630,9.588638,-4.955536,-4.0145583
2631,5.6985073,-3.8608193,-2.740081
2632,2.2537398,-2.8115666,-1.559223
2633,0.45942193,-1.6139588,-1.1350952
2634,-0.24735804,-0.33708888,-1.7434704
2635,-0.36221352,0.817448,-2.4358935
2636,-1.3106686,1.4069797,-1.5137594
2637,-2.2139592,1.8308084,0.8817552
2638,-1.6414764,-0.30837503,2.4556344
2639,-0.56590253,-4.1458645,3.5503507
2640,0.11455639,-6.8336024,2.1035903
2641,3.3053854,-12.906287,0.40528435
2642,7.5215387,-28.783564,2.5298119
2643,15.656538,-66.24679,4.4632125
2644,2.7999015,-71.162544,-4.699803
2645,-17.408682,-62.976997,10.11177
2646,-28.57389,-49.214977,15.487246
2647,-20.263918,-31.866714,8.827721
2648,-10.535897,-18.161823,4.395914
2649,-2.6377878,-14.305191,8.708079
2650,17.755043,-14.669199,-9.897911
2651,16.70579,-12.978072,-8.882157
2652,2.6799614,-7.683952,-4.7189455
2653,1.3938192,-3.2045877,-7.083054
2654,2.0548365,-0.1692922,-9.2895355
2655,1.8631115,4.425226,-8.843872
2656,2.00698,8.864211,-12.317353
2657,-2.7433712,11.192428,-10.7889385
2658,-5.919843,13.518551,-12.899407
2659,-6.1737814,13.317254,-22.541286
2660,-5.229813,12.229716,-23.674288
2661,-4.456034,11.388939,-17.745472
2662,-2.882155,9.010174,-11.248959
2663,-2.0557337,5.8337016,-7.509575
2664,-2.0629122,3.5270207,-5.2603216
2665,-2.554039,0.57577294,-3.3726835
2666,-3.3230324,-1.6283158,-1.1207383
2667,-3.5578282,-3.065505,0.17288144
2668,-2.8438697,-4.5819564,1.835295
2669,6.9993052,-11.746665,66.513885
2670,2.644069,-21.268904,21.22673
2671,8.256734,-14.983257,-25.236202
2672,1.1087742,-12.228221,-7.7946196
2673,-1.2939188,-16.271791,9.186943
2674,-3.3182468,-17.539091,-10.44168
2675,-8.729615,-23.094328,-9.143274
2676,-15.97598,-36.01557,-9.799805
2677,-11.06531,-34.674095,-6.8195443
2678,1.6043876,-20.119152,-8.079665
2679,3.3173494,-15.625132,-17.510675
2680,2.2465613,-13.890934,-17.613867
2681,4.0357943,-14.81546,-14.696118
2682,2.0237298,-17.10569,-8.367103
2683,4.019045,-17.574984,-8.199605
2684,11.881262,-19.853249,-11.155639
2685,16.583458,-25.654947,-12.487543
2686,12.08495,-31.255648,-13.963017
2687,7.286743,-39.43641,-12.365211
2688,6.673283,-41.59713,17.99283
2689,3.0490541,-30.510881,61.377697
2690,-1.727618,-17.910576,60.259052
2691,-14.660825,-14.705391,26.264519
2692,-20.242382,-9.6580305,2.9132617
2693,-10.126126,-4.3112683,8.403593
2694,-0.48903313,-3.077469,15.058332
2695,5.7870417,-3.4585261,12.229418
2696,9.557532,-3.8057845,14.540884
2697,9.365807,-3.7097723,17.391634
2698,10.149158,-3.7049868,11.652149
2699,10.122836,-4.3064823,5.404489
2700,9.916755,-4.735097,-0.933799
2701,6.943971,-4.160221,-1.8634106
2702,3.784548,-3.10379,-0.56500524
2703,1.4177474,-1.9971097,-0.04995017
2704,-0.6903293,-1.1276177,-0.24646074
2705,-2.2546372,-0.061615184,-0.8883354
2706,-3.1456645,1.0259227,1.128515
2707,-4.025027,1.361217,1.2221341
2708,-2.053341,-0.67477596,-0.3469593
2709,-0.13459627,-5.2884374,2.4652054
2710,1.6163517,-10.72164,2.5274189
2711,5.933303,-18.063717,1.2149557
2712,10.963614,-30.599417,-4.6396832
2713,15.270695,-61.87271,6.489634
2714,0.72293156,-64.177,0.72382885
2715,-13.923237,-58.511692,3.2270205
2716,-25.194029,-42.608097,13.669
2717,-26.679075,-37.064823,4.1374893
2718,-18.69243,-24.402304,-1.4608182
2719,-9.972985,-15.670595,5.6560345
2720,-2.6835506,-14.288442,4.1347976
2721,19.954046,-13.366307,-11.493325
2722,11.967403,-9.506984,-4.404887
2723,2.955435,-5.9617176,-3.4779677
2724,-0.6041877,-3.5063825,-6.9538417
2725,2.0715861,-0.49980083,-6.6161547
2726,1.939981,2.8920252,-7.614859
2727,2.3015962,7.309475,-10.669297
2728,-0.0077766734,9.7863455,-11.675479
2729,-1.3058829,10.682158,-16.473686
2730,-1.7300107,11.650055,-21.801006
2731,-2.9614172,11.7050905,-18.488144
2732,-2.3841486,10.279865,-13.699508
2733,-2.2737796,8.351549,-8.915657
2734,-2.9012976,5.28754,-5.7224355
2735,-3.1914272,3.507878,-4.8098726
2736,-2.906083,1.0594223,-3.1187453
2737,-3.164807,-1.4126626,-1.084846
2738,-3.5362928,-3.2739797,1.5167505
2739,-0.59700924,-4.3447676,37.803608
2740,-1.2556337,-19.55624,42.72893
2741,7.0782685,-17.850456,-33.28267
2742,9.270094,-22.696522,-1.6932211
2743,-0.9514461,-17.843279,0.110368945
2744,-0.29042885,-12.216257,-11.143674
2745,-6.300601,-17.01925,-7.030412
2746,-14.349459,-24.922146,-11.907583
2747,-12.28206,-26.840889,-15.529718
2748,1.8008982,-15.476478,-26.180172
2749,1.2738789,-13.92204,-19.09652
2750,5.3222356,-15.380765,-11.136496
2751,1.7602202,-18.736998,-6.8509502
2752,0.4211368,-22.895424,-8.683254
2753,3.6143587,-26.879175,-11.823834
2754,14.236098,-31.895428,-17.630617
2755,20.114666,-37.54159,-19.290638
2756,11.409278,-44.021355,-17.192131
2757,12.6574335,-49.372906,-8.259425
2758,6.4938216,-46.78088,52.713284
2759,-2.6835506,-24.572195,78.54889
2760,-12.679866,-14.343476,52.090553
2761,-22.66661,-11.363515,15.652649
2762,-13.099209,-5.722136,-3.6338003
2763,-3.3397822,-3.187838,7.970193
2764,5.5761743,-0.7298109,10.425529
2765,8.7622175,-0.123828575,9.951151
2766,10.367203,-0.0041874396,13.199408
2767,12.690933,-1.3217354,14.881263
2768,13.27538,-3.2620156,11.223235
2769,11.627323,-4.3926244,2.5226333
2770,8.177771,-4.9028935,-0.4621139
2771,4.074379,-4.0238304,-1.6094723
2772,1.6884354,-3.2165518,-1.6908283
2773,-0.7791629,-2.1000009,-2.2633111
2774,-1.8329022,-1.2927225,-3.367898
2775,-2.71705,-0.07597212,-4.764409
2776,-4.032205,0.6858428,-4.1054854
2777,-4.6908298,0.48933223,-0.2321038
2778,-3.0667014,-2.5552354,3.423531
2779,-0.73818576,-6.7115684,3.7061832
2780,0.6056832,-11.411371,1.9788643
2781,2.1625135,-18.940388,1.0567303
2782,5.07069,-39.865322,12.480963
2783,2.0931215,-66.2779,4.170989
2784,-12.124133,-61.810497,-5.6913285
2785,-19.461424,-51.109795,6.4848485
2786,-19.044775,-40.897526,4.534997
2787,-13.389039,-27.08765,2.8701909
2788,-3.8261235,-17.78585,5.2008
2789,5.7463636,-16.887646,7.7593255
2790,15.706787,-16.547266,-3.2336006
2791,12.259626,-11.339586,-7.3345995
2792,3.4944184,-8.354839,-1.8155541
2793,0.7540382,-6.0550375,-3.9308095
2794,-0.56111693,-3.0702906,-5.660222
2795,2.2178476,0.18514465,-9.397213
2796,3.1758738,3.862315,-12.173485
2797,1.43689,7.6184483,-9.145667
2798,-1.483251,11.187642,-9.87159
2799,-3.7109687,13.679169,-16.418352
2800,-3.2703903,12.773485,-26.242386
2801,-2.4559333,13.113565,-20.92673
2802,-1.3181462,11.932708,-14.066208
2803,-0.23988047,8.135896,-10.000802
2804,-0.7501499,3.9101713,-7.926524
2805,-1.0256236,1.4117653,-4.2421756
2806,-1.334896,-0.55752766,0.695115
2807,0.51445687,-3.1468608,10.296316
2808,0.03798606,-11.727523,78.709206
2809,-7.9510508,-18.86621,-0.148355
2810,3.906582,-9.368199,-30.48486
2811,1.1255239,-14.369798,8.635996
2812,-1.5335002,-14.654842,7.308877
2813,-0.8676973,-12.082259,-9.358928
2814,-5.9916277,-17.840885,-10.415359
2815,-16.47907,-32.221153,-18.547964
2816,-10.569397,-36.83242,-17.800507
2817,1.966302,-21.927826,-14.636298
2818,6.2111692,-15.349658,-21.281166
2819,2.4622145,-15.819249,-10.827224
2820,1.695614,-17.977575,-8.151449
2821,-1.9193429,-21.45345,-6.9418774
2822,-1.3947165,-23.621347,-6.4866433
2823,6.8721867,-25.540092,-10.863415
2824,13.438391,-30.110682,-11.280065
2825,19.99951,-32.522945,-14.91895
2826,14.28874,-39.55844,-2.716153
2827,12.870395,-37.891243,20.49632
2828,5.9213386,-27.439693,54.69185
2829,-5.1125646,-19.846071,57.00601
2830,-16.241882,-14.195121,31.884361
2831,-22.939692,-10.285548,13.932509
2832,-14.866906,-3.731607,3.1887352
2833,-5.246563,-2.7445676,10.1237335
2834,3.839583,-2.3371894,11.910872
2835,8.477173,-2.8881369,11.932408
2836,8.769396,-2.766103,15.230914
2837,11.507383,-2.7469604,17.578573
2838,11.845369,-3.6523447,11.826825
2839,11.289637,-5.360521,0.110368945
2840,9.586246,-5.942575,-2.567798
2841,5.6554365,-4.543671,-2.3856442
2842,2.6703901,-2.885744,-1.7195421
2843,0.8066803,-1.5107684,-1.6621144
2844,-0.7692925,-0.20997019,-2.210669
2845,-1.34686,0.64995044,-2.1652055
2846,-2.2905295,1.6175481,-1.4874383
2847,-3.802195,2.0057836,1.2819548
2848,-3.3445678,0.5949155,0.91525465
2849,-1.1551352,-3.0032916,2.4795625
2850,-0.2015953,-6.8718877,2.0964117
2851,2.629712,-14.523237,1.9501505
2852,8.987442,-30.005398,-0.5027919
2853,15.364314,-66.934425,13.822439
2854,5.628816,-72.501625,2.053341
2855,-14.917155,-60.734924,-0.5458627
2856,-21.521645,-43.63342,10.852049
2857,-21.821047,-34.604702,5.8286166
2858,-15.873088,-22.612772,-2.2633111
2859,-8.988339,-15.141184,4.9253263
2860,5.1260242,-12.918251,0.9586246
2861,17.704794,-12.156436,-12.492329
2862,8.709576,-8.848359,-6.038886
2863,1.0103694,-4.59392,-5.3560343
2864,-0.00059820566,-1.326521,-7.746763
2865,0.87158567,0.8536395,-7.43779
2866,1.558924,5.6590257,-8.216354
2867,0.50488555,8.167003,-10.307383
2868,-0.7645068,10.631909,-11.4191475
2869,-1.8738792,11.420045,-21.920948
2870,-2.652444,12.232109,-20.744576
2871,-2.6859434,12.083755,-16.190735
2872,-2.420041,11.106286,-12.032309
2873,-2.6306095,7.9776707,-8.221141
2874,-2.606681,4.8251266,-6.474679
2875,-1.7706888,1.5337993,-5.2169514
2876,-3.1600213,-0.74177504,-2.1723838
2877,-4.247559,-1.3094722,0.4339982
2878,-4.0178485,-2.495415,1.6148561
2879,-3.315854,-4.3782673,29.809784
2880,1.4177474,-15.2730875,44.64768
2881,-1.1359925,-11.38505,-41.942593
2882,1.8056837,-8.295019,-10.700404
2883,-1.1934203,-8.2660055,-1.3722838
2884,-0.654437,-14.353047,-0.663111
2885,-3.6032917,-23.132612,-8.733803
2886,-14.998811,-44.907597,-12.264711
2887,-18.548862,-50.812485,-11.042876
2888,-4.5616174,-31.191042,-4.380959
2889,4.0214376,-20.459232,-9.51476
2890,6.294918,-15.495919,-15.050555
2891,5.0132627,-16.676777,-13.110275
2892,7.454241,-17.031214,-13.65883
2893,13.771293,-18.875782,-13.759329
2894,18.25335,-22.497917,-12.173485
2895,18.631714,-27.243183,-16.933407
2896,10.808081,-31.41866,-5.7631135
2897,10.146765,-35.95575,10.815858
2898,9.341879,-32.216366,35.163727
2899,2.9051857,-22.521845,52.404312
2900,-12.984054,-19.644775,42.65685
2901,-17.801405,-14.437096,21.485455
2902,-20.158634,-8.596813,0.47946185
2903,-11.388639,-3.772285,11.127522
2904,-0.22313072,-3.4055848,14.327923
2905,4.3905306,-5.4729834,13.582858
2906,7.305886,-5.2716875,15.185451
2907,7.705786,-4.301697,16.639389
2908,9.876077,-3.9951165,15.276378
2909,10.393524,-5.0922256,6.358029
2910,11.411671,-5.35095,-1.8394824
2911,9.325129,-4.536493,-2.3952155
2912,4.553242,-3.7220356,-1.4703895
2913,1.5134603,-2.8307092,-1.1590235
2914,-0.10827523,-1.6689938,-2.0982063
2915,-0.02213361,-0.5838487,-3.0299118
2916,-0.6520442,0.78873414,-3.7271204
2917,-1.6965113,0.7576275,-4.086343
2918,-1.672583,-2.2342982,0.8913264
2919,-0.20398813,-6.263512,4.017549
2920,0.86201435,-9.98136,3.5479577
2921,4.5245285,-17.778673,-1.422533
2922,10.690534,-38.765522,-5.835197
2923,8.949157,-69.74659,4.4775696
2924,-8.990732,-64.98667,2.1131616
2925,-20.513071,-56.181084,10.97169
2926,-25.337599,-42.85007,9.965508
2927,-19.396818,-30.02454,3.1145577
2928,-6.602396,-17.177475,1.4494523
2929,-1.2867404,-15.838392,5.174479
2930,12.683755,-14.698213,-7.4569325
2931,15.529419,-10.905888,-6.4531436
2932,2.3398814,-6.8455663,-4.2254257
2933,-0.26889345,-3.784249,-4.733302
2934,0.9194421,-0.9765707,-6.678368
2935,0.29671,3.4094732,-8.04138
2936,1.9447666,7.2493553,-8.549256
2937,-0.3047858,10.665409,-10.793724
2938,-2.6596224,10.442577,-15.596717
2939,-3.3493536,10.299007,-22.213171
2940,-3.4549367,12.009277,-19.053448
2941,-3.7208393,11.999706,-13.721044
2942,-3.2273195,10.639088,-10.709975
2943,-2.8295128,6.2123656,-7.0878396
2944,-2.906083,3.2273195,-5.075775
2945,-2.6425736,0.47018966,-3.6577284
2946,-3.0475588,-1.4653047,-0.5267201
2947,-4.211667,-2.0521445,1.5071791
2948,-3.830909,-3.417549,2.364707
2949,6.2111692,-9.334401,78.709206
2950,-1.4401802,-17.167904,5.974579
2951,9.540782,-10.407582,-30.851261
2952,10.273883,-16.003496,2.1801605
2953,4.9199424,-19.445871,0.19920248
2954,-2.8199415,-20.217258,-16.05913
2955,-9.980165,-30.42444,-7.955238
2956,-12.988839,-36.753456,-8.755338
2957,-4.286144,-26.496025,-3.1737802
2958,1.9806589,-16.760527,-11.857333
2959,3.1830523,-13.934005,-13.000205
2960,4.9079785,-13.830814,-14.307883
2961,5.849255,-14.956637,-13.771293
2962,7.6340017,-17.016857,-11.07159
2963,17.64228,-19.338194,-14.250455
2964,20.457138,-25.868208,-15.357136
2965,15.666109,-30.103504,-14.617155
2966,7.114161,-33.9386,-10.786546
2967,6.465108,-36.69842,-15.941882
2968,6.532107,-41.340797,0.33080772
2969,-15.427424,-35.364124,78.709206
2970,-16.768902,-20.042282,60.041004
2971,-26.961727,-14.705391,23.64378
2972,-17.935701,-7.7536426,1.3274183
2973,-6.7462645,-7.5523467,10.109377
2974,0.51206404,-4.2200418,13.800903
2975,6.3738813,-3.2739797,11.062617
2976,9.907183,-3.1229327,13.654642
2977,11.040483,-3.1420753,16.328024
2978,13.974981,-2.4499512,12.847363
2979,14.559428,-3.6355948,2.812763
2980,11.296815,-4.4691944,-1.5376877
2981,6.599106,-3.9445682,-2.1771696
2982,3.6885362,-3.170789,-2.2824538
2983,1.2020943,-1.7958134,-2.5989046
2984,-0.18723837,-0.3610171,-3.1833515
2985,-0.73818576,0.60687965,-2.606083
2986,-1.2675978,1.3636098,-2.2417758
2987,-1.8547367,1.1123635,-0.17467605
2988,-0.369392,-1.1324034,1.0758729
2989,0.9170493,-5.5256257,2.184946
2990,2.5411777,-9.080762,0.7716853
2991,5.413462,-19.371695,-1.4994025
2992,6.8243303,-41.1395,-5.0709896
2993,4.8649077,-73.692055,17.166409
2994,-12.732509,-67.21708,4.0295134
2995,-23.13381,-57.692448,7.179664
2996,-21.06641,-37.244583,11.747862
2997,-20.031515,-25.916063,0.3379862
2998,-12.722937,-15.340087,0.4004987
2999,-12.722937,-15.340087,0.4004987
3000,-12.722937,-15.340087,0.4004987
