,ax,ay,az
501,5.521139,-1.9444675,-4.503292
502,2.5818555,-0.052043892,-3.5162528
503,0.94337034,1.5433706,-4.249354
504,0.96729857,3.4692938,-4.7285166
505,1.410569,4.8828535,-4.505685
506,1.1685947,5.608477,-4.306782
507,3.3628132,4.8732824,-8.223534
508,2.5268207,3.5389848,-9.399606
509,0.5240282,2.5926232,-9.207881
510,-1.8233309,-0.07597212,-2.876771
511,-3.2177482,-2.754139,3.612863
512,-5.378467,-6.45763,18.011972
513,-8.940483,-12.570992,31.13451
514,-13.333705,-17.840885,22.134806
515,-13.487144,-20.037497,16.455143
516,-13.352848,-22.095324,11.716755
517,-9.477073,-22.21048,6.4609203
518,-6.365207,-15.404693,5.1960144
519,-5.4813585,-9.008678,6.8132634
520,-5.960521,-6.443273,3.39721
521,-0.7935198,-1.8388842,-7.5287175
522,-2.6425736,0.4941179,-12.417852
523,-9.987343,-2.6703901,-10.113564
524,-14.790336,-7.731808,-1.8753748
525,-23.485853,-24.78067,26.561527
526,-18.342781,-36.79174,-6.695118
527,1.1470593,-22.462025,-25.468607
528,6.1510496,-11.873784,-15.158531
529,0.04755735,-9.499805,-8.635398
530,-1.2484552,-7.602596,-2.8719854
531,-0.7405786,-6.2659054,-0.7375876
532,-0.20877378,-4.867001,-3.2766714
533,2.1122642,-4.119543,-3.8467615
534,3.6143587,-6.443273,-7.140781
535,2.1747768,-10.980364,-7.128817
536,-1.5669997,-14.6333065,-2.9653056
537,-2.4487548,-15.960426,-3.1570303
538,1.0462617,-15.1962185,-3.4325042
539,5.3270216,-13.068999,-5.0183473
540,4.9486566,-11.408978,-5.087739
541,4.3522453,-9.650852,-4.0384865
542,3.9831524,-8.124829,-3.312564
543,3.4561331,-6.6275206,-3.2312078
544,2.8932216,-5.020142,-3.4444683
545,2.0668006,-4.5218368,-4.7691946
546,0.99601245,-7.3438716,0.22791636
547,1.9734805,-11.131112,4.2044883
548,3.5353954,-11.797214,9.349955
549,4.1222353,-10.5682,11.999408
550,3.7941194,-6.855138,9.402596
551,2.8597221,-4.694419,2.3383858
552,0.19591236,-4.8933225,1.2699906
553,-5.323133,-8.409874,1.9645073
554,-11.472388,-11.536098,8.207381
555,-7.903194,-11.866606,9.613464
556,-1.7252251,-12.175579,6.753144
557,1.1446666,-14.851353,2.9946175
558,-0.6448657,-16.791634,0.939482
559,-1.3731811,-16.080366,0.86261255
560,-3.8907297,-14.228621,1.7898313
561,-1.428216,-12.32184,-0.40438703
562,2.9386854,-12.901502,0.5297111
563,5.509175,-14.94228,0.45074797
564,8.376674,-16.590635,-0.016450657
565,9.775578,-16.528124,1.0902299
566,7.494919,-14.597415,3.2820554
567,4.965406,-13.165011,5.476573
568,2.2537398,-13.088441,8.442178
569,1.0271192,-13.013964,8.810971
570,0.89072824,-14.084752,7.998907
571,1.6043876,-15.328123,3.5096726
572,3.499204,-16.001104,-1.9447666
573,3.906582,-16.077974,-5.061418
574,4.0767717,-15.641882,-6.6424756
575,2.4212375,-14.839389,-6.2063837
576,0.3804588,-15.145969,-5.3967123
577,-0.9562318,-15.51267,-5.0590253
578,-2.5731816,-16.40609,-4.6875396
579,-4.3531427,-17.970398,-4.4482574
580,-5.5746784,-21.510878,-0.8739785
581,-8.216953,-24.11008,0.7286145
582,-9.805189,-21.805494,-1.422533
583,-9.472287,-18.732212,-2.428715
584,-8.770293,-15.910177,-6.0676003
585,-10.47847,-13.090834,-7.5981092
586,-12.902698,-13.284652,-5.554938
587,-12.617653,-9.475877,-2.2226331
588,-7.3522468,-5.810671,0.24466611
589,-3.5267215,-3.757928,-3.4157543
590,1.0845468,-3.5446677,-4.354638
591,2.6368906,-4.478766,-2.9676983
592,6.416952,-3.9951165,-3.135495
593,7.9357963,-4.586742,-5.981159
594,5.736792,-3.1683962,-4.9055853
595,3.5330026,-0.9095717,-3.7223346
596,1.5373886,0.82971126,-3.5306098
597,1.4991034,2.734099,-3.8276188
598,2.035694,3.981956,-3.5473595
599,2.2417758,4.5930233,-2.891128
600,3.9831524,4.9642096,-1.7027924
601,5.430212,3.6753755,-6.187241
602,2.5603201,2.8369904,-7.2939215
603,0.34456646,1.4883357,-4.5224347
604,-3.0020952,-1.5131612,1.3800604
605,-4.5687957,-4.8693943,11.673684
606,-10.986346,-11.686845,27.812077
607,-13.053446,-18.746569,24.54707
608,-12.296716,-23.209183,25.198517
609,-15.250356,-25.918457,13.52543
610,-11.03181,-24.919752,6.678966
611,-7.819445,-15.919748,4.731508
612,-6.4037914,-8.927322,1.4856437
613,-1.727618,-3.5709887,-2.2154546
614,0.581755,0.317049,-14.693726
615,-3.5099716,0.39840496,-10.432109
616,-11.9922285,-4.543671,-4.6061835
617,-18.845871,-12.221043,10.066306
618,-23.814268,-30.204002,23.222343
619,-10.298709,-33.76153,-18.26292
620,1.1327025,-20.62703,-23.367708
621,3.4657044,-9.940682,-10.889736
622,0.45702913,-8.82443,-4.613362
623,-0.3789633,-6.826424,-2.0479572
624,-0.05802595,-5.7843494,-3.1426735
625,0.7899306,-5.803492,-3.3990045
626,0.2940181,-7.722237,-3.731906
627,0.8979067,-10.03161,-4.4578285
628,-1.3707882,-12.688241,-3.5569308
629,-1.6773686,-13.5074835,-4.821837
630,2.1314068,-13.826028,-5.401498
631,5.31745,-12.736097,-5.2217374
632,5.820541,-10.565807,-4.9007998
633,5.0132627,-8.886644,-3.6290147
634,5.4110694,-7.46112,-2.7640092
635,5.037191,-6.8001027,-2.7759733
636,4.6803613,-5.7173505,-3.8587255
637,2.5938199,-5.2405806,-4.8385863
638,0.94337034,-8.515159,0.8147561
639,2.1242282,-11.533704,3.6080775
640,3.6717863,-12.494123,8.022835
641,4.138985,-11.181361,10.447063
642,2.874079,-8.474481,7.7617183
643,1.0992029,-6.747461,3.9960139
644,-2.6572297,-6.215656,2.297708
645,-7.783553,-7.569096,2.431706
646,-13.055839,-9.885648,7.98455
647,-10.8759775,-11.049756,8.95484
648,-3.8404803,-11.416157,7.3522468
649,0.50488555,-13.289438,7.203593
650,0.22462623,-15.732809,2.9778678
651,-2.0916262,-15.627524,1.495215
652,-5.2609196,-14.616557,-0.47168517
653,-4.1183467,-13.646566,-0.8380861
654,0.42592242,-12.5348015,-0.33020952
655,3.1232316,-13.900505,0.45553362
656,7.0399833,-14.710176,0.61824554
657,8.091629,-15.251553,0.33080772
658,7.4063845,-13.787744,1.9214365
659,5.45414,-13.033107,2.9563324
660,2.4885356,-13.296617,6.1639113
661,0.51206404,-13.900505,8.72483
662,0.8380861,-14.5615225,8.365308
663,1.5732809,-14.983257,7.251449
664,3.4274194,-16.703098,4.1614175
665,5.3772707,-16.628922,-0.8285148
666,5.8157554,-15.179469,-4.5918264
667,4.17727,-13.3687,-5.9093747
668,1.9591235,-13.246367,-5.169095
669,0.11934203,-14.146966,-5.078168
670,-1.238884,-15.442978,-5.5501523
671,-2.4966114,-17.574984,-6.2494545
672,-3.1456645,-19.834106,-6.786045
673,-4.592724,-21.154047,-4.098307
674,-7.09113,-21.604197,2.4771698
675,-10.480863,-18.933208,1.5263218
676,-9.0747795,-15.617953,-2.3353949
677,-7.3043904,-12.78874,-5.3392844
678,-11.216356,-11.29173,-9.54826
679,-9.809975,-10.570593,-4.2373896
680,-8.02792,-5.2692947,-2.1460629
681,-5.8094745,-3.5829527,-0.7256235
682,-1.8834505,-3.9565322,-1.7434704
683,3.4537404,-4.1578283,-3.734299
684,6.5775704,-4.773382,-3.6143587
685,7.6316085,-4.6345983,-6.1513486
686,4.555635,-2.7756743,-3.8563328
687,1.2451651,-1.16351,-2.5220351
688,0.36370903,0.50129634,-2.888735
689,0.14327025,1.3540385,-3.5330026
690,1.1877373,2.7412775,-3.9379878
691,1.2523435,3.222534,-3.2120652
692,2.3446672,2.7364917,-3.05384
693,4.0070806,1.8667008,-4.31396
694,3.243172,2.0440688,-5.2316074
695,-0.4004987,1.361217,-4.924728
696,-2.01027,-0.21954148,-0.622433
697,-3.670291,-3.431906,4.9926243
698,-8.717651,-11.778071,18.797716
699,-13.019946,-17.127226,26.374887
700,-13.959129,-24.936502,21.681965
701,-11.376676,-25.94029,19.722542
702,-7.64447,-24.04039,10.468599
703,-3.5769708,-17.273188,6.202196
704,-3.2919257,-12.331411,5.4909296
705,-4.099204,-7.3486576,4.592425
706,-4.278965,-6.000003,5.0955157
707,-7.0025954,-7.192825,0.99930257
708,-9.49143,-10.134501,-3.4013975
709,-12.174382,-14.096716,-5.2217374
710,-13.27867,-18.954744,-4.613362
711,-11.233106,-20.195723,-0.16271193
712,-9.501001,-18.758533,-3.909274
713,-2.9422746,-9.825528,-10.683654
714,-2.4296124,-5.595317,-8.309675
715,-2.4918256,-4.47398,-5.4852467
716,-2.283351,-4.1434717,-3.4779677
717,-2.065305,-4.052544,-3.621537
718,-0.8461619,-3.7674992,-5.1499524
719,-0.1585245,-4.2128634,-5.686543
720,0.6678966,-6.4648085,-7.19103
721,3.1663027,-9.514162,-5.7583275
722,5.784649,-12.424731,-4.750052
723,2.0045872,-16.446768,-3.2336006
724,-0.82941216,-18.827925,-3.077768
725,0.98883396,-17.862421,-5.9261246
726,4.134199,-15.313766,-7.059126
727,3.0227332,-13.315759,-5.7559347
728,2.2082763,-11.519347,-4.8673005
729,1.843969,-9.789636,-3.676871
730,2.1074786,-7.255337,-3.434897
731,2.3446672,-4.9196434,-4.8505507
732,1.5086746,-6.8168526,1.114158
733,2.7329025,-9.511769,6.683752
734,4.0480576,-10.069895,9.841082
735,4.5822554,-9.126225,11.266306
736,2.6536403,-7.667202,8.2145605
737,1.2164512,-6.716354,5.026124
738,-0.31196424,-5.6072807,1.861616
739,-2.1445673,-5.959325,1.1572288
740,-4.8394837,-8.936893,2.594717
741,-8.751151,-11.749357,5.974579
742,-8.6961155,-11.672488,9.867402
743,-4.1590247,-10.779068,8.355737
744,-1.442573,-12.779168,0.82672024
745,-0.8246265,-14.88246,0.5273183
746,-2.2594228,-15.546168,1.590928
747,-1.957628,-14.331512,1.7659031
748,2.1915264,-13.58884,1.3345969
749,5.578567,-13.212868,0.17288144
750,7.2026954,-14.254942,-1.6429719
751,8.817252,-14.666806,-2.2728825
752,9.231809,-14.518452,-0.5482555
753,7.4470625,-13.387843,4.170989
754,4.004688,-13.622639,7.7736826
755,1.7171494,-14.132608,9.891331
756,-0.12981063,-14.729319,9.476774
757,-0.9586246,-15.30898,8.2456665
758,0.15523437,-16.85893,3.1887352
759,4.8505507,-17.244474,-4.888836
760,5.3557353,-15.936498,-7.4401827
761,3.6526437,-14.599808,-7.7587276
762,1.6788642,-13.910076,-5.442176
763,-0.014955142,-14.769997,-3.882654
764,-1.91695,-16.480267,-4.599005
765,-3.1719856,-18.2363,-4.0504503
766,-4.247559,-21.889242,-2.716153
767,-5.11735,-24.004498,0.5775676
768,-7.6253276,-24.323042,0.26620153
769,-7.699505,-21.73371,0.6014958
770,-7.986943,-18.336798,-2.9605198
771,-8.207381,-15.366408,-5.8447685
772,-15.322141,-13.70878,-11.953345
773,-9.853045,-11.049756,-5.234
774,-10.844871,-8.548957,-0.46929234
775,-6.30778,-4.4859443,-0.42382872
776,-3.3900316,-4.2248273,-1.2311072
777,-0.34546378,-3.9421754,-3.487539
778,3.9448671,-3.8081772,-2.7759733
779,8.007581,-5.317151,-5.51426
780,9.145667,-4.775775,-5.3153563
781,5.6817575,-3.1372895,-4.280461
782,1.2954143,-1.82692,-2.3162522
783,-0.16570297,-0.030508488,-2.8959136
784,1.0582259,1.6271194,-4.1437707
785,1.6357933,3.3376884,-4.7117667
786,2.9123642,4.228716,-4.4817567
787,4.284947,3.9580278,-5.0255256
788,4.833502,2.9880373,-8.532506
789,1.6307086,3.074179,-8.204391
790,-0.9131609,1.6920247,-3.3221352
791,-2.6090739,-1.678565,5.529215
792,-6.209674,-7.2936225,19.909182
793,-12.332608,-13.902898,28.003801
794,-14.107484,-17.757137,20.503498
795,-10.013663,-18.64338,19.57628
796,-8.284251,-19.347765,11.367104
797,-7.6492558,-18.674486,8.820542
798,-6.8682985,-14.626128,7.5963144
799,-5.8863435,-9.578768,6.7651076
800,-7.3881392,-9.078369,2.8725836
801,-7.5344005,-7.980961,-2.2226331
802,-8.356036,-8.500801,-9.603294
803,-15.875481,-12.007782,-7.0399833
804,-22.115664,-18.15943,7.2562346
805,-18.599112,-23.166113,15.86561
806,-6.901798,-22.79732,-3.7031922
807,4.258626,-11.833106,-20.531614
808,5.6482577,-6.0023956,-13.026526
809,0.62482584,-6.7642107,-8.175676
810,-0.78634137,-5.5423756,-3.9930227
811,-0.8605189,-5.0416775,-2.225026
812,-0.73100734,-4.5412784,-4.263711
813,0.37088752,-4.272983,-5.918946
814,1.3025929,-5.0440702,-7.399505
815,2.8286154,-7.3773713,-8.630612
816,5.0802617,-11.852249,-6.1657057
817,2.4188447,-16.21915,-1.5161523
818,-0.055633128,-18.787247,-0.79501534
819,0.66071814,-18.221943,-2.9940193
820,3.7674992,-16.379768,-6.170491
821,2.5196424,-14.360226,-5.581259
822,3.4776685,-12.103794,-5.669793
823,4.8673005,-9.928719,-4.7596235
824,3.5928233,-8.668598,-3.5114672
825,2.2130618,-5.1209397,-7.7419777
826,0.5096712,-7.094719,0.08644072
827,1.5038891,-9.490233,4.7578287
828,3.1639097,-10.398011,9.699606
829,4.615755,-9.605089,12.356237
830,3.7172499,-6.895816,13.297812
831,1.7961125,-4.668098,11.477174
832,-3.2009985,-3.8009987,10.114162
833,-3.9242291,-4.833502,-0.6367899
834,-8.221739,-9.92154,-3.312564
835,-11.177772,-11.914462,3.952943
836,-7.1222367,-12.474981,9.532108
837,-0.36221352,-12.614063,7.1365933
838,-0.029312078,-15.433407,1.2963116
839,-1.0256236,-17.134405,-0.15314065
840,-2.5588248,-16.40609,1.7491534
841,-1.1120644,-13.89572,-0.08823533
842,3.8898323,-12.851253,-0.9771689
843,7.327421,-13.469198,-1.4799608
844,8.8340025,-13.914862,-2.2298117
845,9.157631,-13.754244,-1.9806589
846,7.5215387,-13.414164,1.0950154
847,4.450351,-13.07857,4.879863
848,1.1470593,-13.524234,7.819146
849,-0.45792642,-13.243975,8.451749
850,-0.5587241,-13.073785,9.100801
851,-1.2173486,-14.662021,10.655539
852,1.2092727,-15.570097,7.27777
853,3.5353954,-16.264614,1.1787642
854,5.933303,-15.68256,-5.902196
855,6.088836,-15.392729,-8.072486
856,3.908975,-14.051252,-8.961121
857,1.8224336,-14.118252,-7.0902324
858,0.104985096,-15.023935,-5.792126
859,-0.93708915,-16.259829,-5.5190454
860,-2.149353,-18.360725,-5.971588
861,-3.464508,-23.654846,-1.8323039
862,-8.013563,-26.22055,2.989832
863,-10.051949,-23.595026,1.4350954
864,-8.911769,-19.417158,-0.15314065
865,-7.115058,-16.755741,-3.3436706
866,-9.4890375,-14.875281,-14.516357
867,-12.262917,-12.209079,-5.432605
868,-14.620147,-8.73799,0.04336991
869,-10.425827,-4.124329,-0.68255264
870,-6.0083776,-3.3026934,-1.5400804
871,-0.85094756,-3.525525,-3.786941
872,2.1649063,-3.1827533,-2.1364915
873,9.133703,-3.7866418,-5.8471613
874,9.593424,-3.022434,-4.924728
875,5.3007,-2.696711,-2.6659036
876,2.2824538,-1.7048861,-2.457429
877,0.33020952,-0.8042875,-2.4933212
878,0.8787641,1.0187442,-3.6290147
879,2.426023,2.3482563,-4.421637
880,3.5162528,3.5509489,-4.3618164
881,4.328317,3.8072798,-5.375177
882,4.4694934,3.6681972,-7.4808607
883,1.7817556,3.4190445,-8.247461
884,-0.84855473,2.652444,-6.5778694
885,-2.2115662,0.75523466,-1.8466609
886,-3.749553,-4.019045,7.2873416
887,-8.322536,-10.460524,18.788145
888,-13.884652,-19.259232,28.820652
889,-14.272888,-23.935106,22.781466
890,-10.859227,-24.89343,17.022839
891,-6.643074,-22.327726,11.163415
892,-3.8691943,-17.033607,9.237492
893,-3.1025937,-12.032009,7.057331
894,-2.3264217,-5.7412786,5.9674006
895,-2.1732812,-3.8009987,3.5958142
896,-2.8342984,-2.3371894,-3.3412778
897,-2.6162524,-1.0869397,-12.233604
898,-8.835198,-4.200899,-12.2120695
899,-16.340286,-10.146765,-6.527321
900,-24.664618,-20.190937,10.166804
901,-28.58107,-36.571304,17.446669
902,-3.7304106,-27.135506,-19.223639
903,6.445666,-10.936995,-16.224533
904,2.548356,-9.097511,-10.824831
905,-2.0844476,-7.731808,-4.148556
906,-0.8246265,-5.9114685,-2.0694926
907,-0.6089734,-5.2477593,-3.1426735
908,1.87029,-4.41416,-4.699803
909,5.8301125,-5.2549376,-7.7204423
910,2.5316064,-10.73839,-7.9719877
911,0.059521463,-13.646566,-3.4899318
912,-1.5406786,-14.774782,-1.3531412
913,-0.64965135,-14.877674,-1.1901301
914,2.3111675,-13.773386,-3.4420755
915,3.3293135,-12.841681,-4.898407
916,3.3939197,-11.672488,-4.0121655
917,4.5918264,-9.655638,-4.167998
918,5.9237313,-8.326125,-4.2708893
919,7.305886,-7.50449,-4.6707897
920,5.382355,-6.344868,-4.340281
921,1.788934,-6.2180486,-3.6433716
922,0.7755736,-8.749954,1.6292131
923,1.5086746,-9.825528,3.7253258
924,3.2237303,-10.117751,5.4164534
925,5.128417,-9.078369,5.962615
926,4.7210393,-6.22762,1.6435701
927,2.7999015,-5.5830536,-1.6046867
928,-2.5444677,-6.213263,4.376772
929,-8.423035,-8.860323,12.114263
930,-13.063017,-10.695319,19.430319
931,-7.630113,-9.93829,14.229518
932,-2.3192434,-12.163615,7.328019
933,0.5479564,-13.751851,-0.11455639
934,1.2690933,-15.138791,-1.0561321
935,-1.2293127,-16.408482,0.52253264
936,-3.5865421,-15.558133,0.20877378
937,1.5158532,-13.579268,1.3896317
938,5.7152567,-13.694423,-0.3278167
939,8.184949,-14.425131,-0.33499518
940,9.931411,-15.24916,-0.19142582
941,9.679865,-14.832211,1.3704891
942,7.945368,-13.981861,2.4149563
943,4.2203407,-14.164015,5.1720862
944,2.030908,-15.797714,7.838289
945,1.5684953,-16.207186,8.391629
946,0.3397808,-16.892431,9.65175
947,-0.048454657,-18.44956,8.698508
948,4.569992,-17.838493,-2.2609184
949,4.9342995,-16.367804,-8.096415
950,3.566502,-13.969897,-10.5685
951,0.8500503,-12.84886,-8.889337
952,-0.31196424,-12.975679,-6.4028945
953,-2.1083758,-14.477774,-4.6707897
954,-3.140879,-16.04926,-4.1775694
955,-4.2451663,-19.144077,-2.9318058
956,-5.2609196,-21.728924,-0.39720857
957,-7.6109705,-22.79732,0.29491538
958,-8.641081,-21.331116,-3.0323045
959,-9.009874,-18.291334,-7.0136623
960,-16.977375,-15.986747,-9.2895355
961,-17.32942,-11.356337,-3.7223346
962,-9.040981,-10.532308,-4.7165527
963,-6.2455664,-7.231409,0.05054838
964,-3.124129,-4.72074,0.062512495
965,-0.050847482,-4.3447676,-3.2240293
966,4.124628,-4.4596233,-2.9102705
967,5.9285173,-3.4103706,-2.9437702
968,9.332308,-3.990331,-3.1618161
969,7.9573317,-4.5074797,-4.7979083
970,5.1065826,-2.4020948,-3.365505
971,1.9016958,-0.27008986,-2.1723838
972,-0.26650062,1.4596218,-2.9485557
973,-0.6376872,3.112464,-3.377469
974,0.49052864,4.3438706,-3.8347974
975,2.0524435,4.621737,-3.8084764
976,4.8792644,3.6490545,-6.7381887
977,5.1403813,2.7771697,-10.1446705
978,1.7291135,1.9722841,-7.773084
979,-3.3397822,-0.9000004,0.48424748
980,-6.0323057,-6.0550375,13.218551
981,-9.652048,-12.134901,29.834011
982,-13.111173,-18.03979,31.438997
983,-13.017553,-22.579273,21.262623
984,-8.962018,-24.037996,13.740784
985,-8.12124,-24.35684,10.212268
986,-4.5544386,-19.53949,5.921937
987,-4.0585265,-12.139687,3.1839497
988,-4.688437,-5.614459,3.667898
989,-6.200103,-5.2477593,0.25663024
990,-6.96431,-5.1161537,-2.3569303
991,-7.6420774,-6.869495,-7.2676005
992,-9.740582,-9.916755,-9.2437725
993,-13.860724,-15.110077,1.0710872
994,-15.343677,-22.785355,13.9827585
995,-11.508579,-24.222544,-5.044668
996,0.60329044,-12.702599,-17.585154
997,2.6679974,-7.0731835,-12.092129
998,-2.335993,-7.528418,-7.0208406
999,-1.9456639,-6.680462,-3.7127635
1000,-0.7262217,-5.5782676,-2.6778677
1001,-0.8557332,-4.898108,-4.033701
1002,2.2034905,-4.965107,-5.8375897
1003,4.560421,-7.190432,-7.797013
1004,5.7655063,-11.957533,-8.589934
1005,1.2954143,-15.946069,-2.7376883
1006,0.36131623,-17.862421,-2.4358935
1007,1.2044871,-17.603697,-3.324528
1008,4.5077786,-15.145969,-5.768198
1009,3.4537404,-12.527623,-4.7596235
1010,2.7472596,-10.201799,-3.5784662
1011,3.51386,-8.2348995,-2.716153
1012,4.0528436,-6.9006014,-2.524428
1013,2.6679974,-4.435695,-3.2312078
1014,1.4991034,-3.9999022,-2.8528428
1015,1.0127622,-7.133004,1.2077773
1016,2.0500507,-9.545269,4.321737
1017,3.094518,-9.907183,7.752147
1018,3.8204405,-8.956036,10.229017
1019,3.243172,-7.4419775,9.239884
1020,0.4426722,-5.6120663,5.028517
1021,-1.8834505,-5.8947186,2.664109
1022,-5.435895,-8.093722,0.1274178
1023,-8.863913,-11.430513,0.1680958
1024,-9.388538,-12.795918,10.9070835
1025,-4.705187,-11.773286,14.38535
1026,1.1542379,-12.077474,7.689934
1027,0.5721837,-15.028721,0.7573284
1028,-0.42203408,-15.3855505,1.3082758
1029,-5.7400823,-15.162719,0.4124628
1030,-3.952943,-13.414164,-0.9819546
1031,1.8391833,-12.829717,-0.74476606
1032,5.9237313,-13.682459,-0.581755
1033,10.434202,-13.974683,-1.9423738
1034,10.578071,-14.343476,-0.91465646
1035,7.8113694,-14.676377,3.4857445
1036,5.200202,-14.350655,5.2513485
1037,3.9257247,-14.247764,6.4968123
1038,2.7568307,-14.983257,9.987043
1039,1.2308081,-15.558133,11.517852
1040,0.47138608,-16.214365,9.800404
1041,3.5641093,-17.04557,0.9490533
1042,6.2374907,-16.808382,-4.395316
1043,6.1008005,-14.343476,-9.167203
1044,3.583252,-13.301402,-8.582756
1045,1.1877373,-13.282259,-6.7381887
1046,-0.7286145,-14.690735,-5.4589257
1047,-2.1445673,-16.235899,-5.51426
1048,-4.1590247,-19.9035,-5.209773
1049,-5.2944193,-23.472692,1.4255241
1050,-9.34786,-25.35076,1.1811571
1051,-8.667402,-22.519453,2.0676978
1052,-8.621938,-19.022043,-5.2698927
1053,-11.153844,-15.769,-8.573184
1054,-17.631214,-12.369697,-7.385148
1055,-11.2139635,-10.352547,-3.7295132
1056,-11.494223,-8.393125,-3.9690945
1057,-7.8840513,-5.18076,-1.274178
1058,0.5168497,-3.8297126,-2.6802604
1059,2.4212375,-3.9302113,-1.9998015
1060,5.3847485,-3.4968112,-2.4047868
1061,9.835399,-4.2969112,-3.9786658
1062,8.8340025,-4.1386857,-4.3211384
1063,5.0108695,-2.265405,-3.0203404
1064,2.696711,-0.51206404,-2.5268207
1065,1.3794622,0.99003035,-3.2216365
1066,0.94337034,2.9760733,-3.7079778
1067,1.5014962,4.0130625,-3.6167514
1068,2.4188447,4.983352,-3.4492538
1069,4.519743,5.0886364,-5.439783
1070,4.9103713,4.6145587,-9.790234
1071,2.6775684,3.9340994,-10.1016
1072,-1.0689936,1.7063817,-5.727221
1073,-4.0561333,-2.5241287,3.7827535
1074,-5.32074,-7.192825,16.294523
1075,-11.625828,-13.409378,28.535606
1076,-15.070595,-21.065214,27.170202
1077,-13.503895,-26.515167,20.338095
1078,-12.018849,-28.833813,12.58864
1079,-6.669694,-24.04039,6.372386
1080,-4.295715,-15.201004,3.5814574
1081,-3.8356948,-7.4395847,3.6463625
1082,-4.9160542,-4.6561337,0.80997044
1083,-5.354539,-3.867998,-1.0513464
1084,-4.765007,-4.0405803,-8.0677
1085,-8.408678,-7.1473613,-11.7209425
1086,-11.98505,-12.33859,-7.3731837
1087,-16.524534,-20.634207,6.262017
1088,-17.061125,-30.606594,10.444671
1089,-3.1695926,-20.487946,-13.246666
1090,2.1625135,-10.034002,-13.9319105
1091,-0.70229346,-7.7943206,-7.861619
1092,-1.1048858,-6.4002023,-4.2254257
1093,0.16959131,-5.2884374,-3.7295132
1094,3.8970108,-4.390231,-6.1848483
1095,5.7583275,-5.7173505,-10.089636
1096,1.5086746,-10.668699,-5.5860443
1097,-2.8175488,-14.417654,-2.102992
1098,-1.3034902,-15.268302,-1.9351953
1099,3.2934213,-13.545769,-4.4578285
1100,5.1906304,-12.032009,-5.8136616
1101,5.8133626,-10.678569,-5.035097
1102,5.791827,-8.740383,-4.3594236
1103,5.209773,-7.8278203,-4.2780676
1104,4.3594236,-7.2433734,-3.7677984
1105,3.6646078,-6.460023,-4.1007
1106,2.2848465,-5.8707905,-5.226523
1107,1.0366904,-8.196614,-0.7471589
1108,1.422533,-10.822139,2.21366
1109,2.4068804,-11.6796665,4.808078
1110,2.728117,-11.021042,6.3364935
1111,2.9410782,-8.901001,6.2285175
1112,1.451247,-7.6959157,4.046263
1113,-0.65922266,-7.8254275,3.095415
1114,-5.067101,-8.960822,8.624032
1115,-10.516754,-10.915459,8.614461
1116,-10.265209,-11.464013,8.794222
1117,-5.205885,-11.531311,5.8334026
1118,-0.99690974,-12.676277,4.8415775
1119,0.7109674,-14.609379,5.2008
1120,-0.00059820566,-14.14218,3.1767712
1121,-1.9408783,-13.272688,1.4303098
1122,-3.9864426,-12.575779,-1.3794622
1123,-1.2173486,-11.6796665,-0.93619186
1124,3.7411783,-12.578172,1.7922242
1125,7.1955166,-14.461023,1.2675978
1126,9.049655,-16.238293,2.0198414
1127,7.667501,-15.831214,3.2676985
1128,5.0395837,-13.684852,3.888337
1129,5.061119,-11.509776,5.0476594
1130,5.3342,-11.322837,8.06112
1131,3.2189445,-11.897713,8.92822
1132,1.7267207,-13.629817,7.744969
1133,3.0323045,-15.965212,4.18056
1134,4.963013,-16.786848,-2.9509485
1135,5.430212,-16.015461,-7.5933237
1136,4.17727,-15.562919,-8.062915
1137,1.6884354,-15.5342045,-6.1178493
1138,-0.053240303,-16.068401,-5.2316074
1139,-1.8137596,-17.366508,-5.372784
1140,-3.519543,-19.599312,-6.0050874
1141,-4.5592246,-22.131216,-3.7965121
1142,-6.224031,-24.004498,0.35473597
1143,-6.602396,-21.942184,3.2365918
1144,-8.686544,-19.853249,-4.1150565
1145,-10.310673,-15.926927,-7.2843504
1146,-14.414064,-12.719348,-5.171488
1147,-14.260923,-9.634102,1.1620145
1148,-7.824231,-8.155936,-5.1619167
1149,-9.424431,-7.4324064,-10.621441
1150,-6.1064835,-2.9386854,-0.41665024
1151,-1.2939188,-2.6991038,-2.4478576
1152,2.1891336,-3.6690943,-2.3377876
1153,4.098307,-3.4824543,-2.5172493
1154,6.884151,-3.8153558,-2.905485
1155,8.616255,-4.435695,-4.9055853
1156,6.527321,-3.3385859,-3.5808592
1157,3.350849,-1.8822541,-2.6563323
1158,2.33031,-0.30119655,-2.754438
1159,1.3480564,0.56859446,-3.269493
1160,1.7171494,1.5768701,-3.4085758
1161,1.3025929,2.693122,-3.2671003
1162,4.093521,3.1579278,-4.3211384
1163,5.0563335,3.2802608,-7.049555
1164,4.004688,2.9303105,-8.280961
1165,-1.0423734,0.750449,-1.7075781
1166,-5.811867,-4.7303114,8.944969
1167,-9.29492,-10.795817,21.401705
1168,-12.881163,-17.627625,29.486454
1169,-12.4426775,-22.655844,21.947866
1170,-11.333605,-25.180868,16.016657
1171,-8.940483,-24.464518,8.018049
1172,-4.892126,-19.271194,6.046663
1173,-3.1265218,-12.113365,3.8931224
1174,-3.1313076,-8.222935,1.2364911
1175,-4.2909293,-7.681559,-0.8117651
1176,-5.9844494,-9.7681,-8.946764
1177,-9.961021,-13.332509,-12.401102
1178,-13.079767,-17.287546,-5.375177
1179,-13.700405,-20.080866,3.7660038
1180,-15.822839,-21.237797,5.454738
1181,-8.557332,-13.910076,-3.2359936
1182,-2.6835506,-6.7522464,-9.830912
1183,-0.8461619,-3.9852462,-9.730114
1184,-2.1011975,-4.193721,-6.963413
1185,-2.5181468,-4.4979086,-5.157131
1186,-1.21017,-4.323232,-4.599005
1187,1.0271192,-4.1554356,-6.3215384
1188,3.1998022,-4.5388856,-9.512367
1189,4.2514477,-8.086544,-8.817552
1190,4.2011986,-12.467802,-3.2001011
1191,1.7123637,-15.991533,-3.638586
1192,2.225026,-17.06232,-4.57747
1193,7.109375,-16.32234,-8.209176
1194,6.0864434,-14.606986,-7.492825
1195,5.818148,-12.434303,-5.9668026
1196,5.425426,-10.03161,-4.685147
1197,5.662615,-7.949854,-4.587041
1198,3.2599218,-4.639384,-8.913264
1199,2.1915264,-6.1510496,-1.5711871
1200,2.7640092,-9.600304,3.301198
1201,4.2394834,-10.915459,8.683852
1202,4.265805,-9.583553,15.453746
1203,1.8415761,-7.0396843,22.175484
1204,-1.8041883,-5.0682974,19.988443
1205,-4.2044883,-5.6934223,11.685649
1206,-5.6946187,-7.9666038,-4.833801
1207,-9.4890375,-12.982858,-1.451247
1208,-8.293822,-14.446667,5.081159
1209,-1.6127625,-13.212868,3.1695926
1210,-0.9275179,-13.636995,2.7287152
1211,-2.2498515,-13.656137,2.812763
1212,-1.3034902,-13.483556,3.0113673
1213,0.38524446,-12.348162,-0.5075775
1214,1.5876378,-11.983854,-2.0431714
1215,3.4010983,-12.714562,-0.8285148
1216,5.9356956,-14.317155,-0.42861435
1217,7.6363945,-15.490834,-0.51475596
1218,8.345567,-15.792929,0.27337998
1219,6.6445694,-15.18904,2.906083
1220,4.2801614,-15.212968,5.7349977
1221,1.6980067,-15.483656,6.6981087
1222,0.25812575,-15.570097,7.3953176
1223,-0.39810586,-14.906387,5.6033926
1224,2.696711,-15.203397,3.3323047
1225,4.5942197,-15.22254,0.7405786
1226,4.2801614,-14.769997,-3.5401812
1227,3.4202409,-13.668102,-7.3178496
1228,1.4727824,-13.299009,-6.975377
1229,0.01375873,-14.003396,-5.334499
1230,-1.6319051,-14.964114,-4.496114
1231,-3.0403802,-16.190435,-3.1259236
1232,-6.013163,-18.734606,-1.1949158
1233,-7.1509504,-22.507488,-1.1111671
1234,-6.6071815,-22.787746,-0.56500524
1235,-9.541679,-22.924139,-3.3966117
1236,-10.013663,-20.121544,-2.141277
1237,-8.899805,-16.73899,-2.864807
1238,-12.088241,-14.051252,-7.171888
1239,-20.120348,-11.7876425,-11.306386
1240,-12.562618,-10.700105,-7.936095
1241,-9.9705925,-5.595317,-1.2239288
1242,-3.5482569,-3.484847,-0.26081768
1243,0.24376881,-3.5590246,-1.9232312
1244,3.9137604,-4.316054,-1.5999011
1245,7.954939,-4.64417,-1.9734805
1246,10.005588,-5.341378,-3.5784662
1247,8.120343,-3.8847475,-4.2589254
1248,4.479065,-2.018645,-3.1307094
1249,2.4885356,-0.28923243,-3.2934213
1250,1.803291,1.0163515,-3.8180475
1251,1.3097713,2.8298118,-3.2886357
1252,2.1529422,4.516154,-3.5641093
1253,2.929114,4.7605205,-4.7979083
1254,4.7042894,4.7485566,-5.981159
1255,4.735396,4.05404,-8.170592
1256,2.4284158,3.33051,-7.9337025
1257,-1.2269198,0.38644084,-2.4598217
1258,-4.700401,-3.8895333,7.3399835
1259,-8.583653,-9.200403,23.088047
1260,-12.95534,-15.546168,33.911083
1261,-12.260524,-23.353052,23.919254
1262,-8.923733,-26.002504,17.710178
1263,-8.090134,-25.96422,9.749855
1264,-6.643074,-21.527628,5.838188
1265,-7.129415,-13.445271,3.7133617
1266,-5.598906,-6.2491555,2.5325036
1267,-5.529215,-3.863212,-0.44057846
1268,-5.174778,-1.326521,-2.8719854
1269,-7.3689966,-1.5299109,-10.149456
1270,-10.849656,-4.7279186,-10.839188
1271,-14.44547,-10.460524,-6.1417775
1272,-19.240986,-20.909681,20.841187
1273,-18.560825,-37.407295,9.21805
1274,-3.7304106,-31.416265,-18.28924
1275,9.375379,-11.442478,-22.579573
1276,3.094518,-9.638887,-11.481361
1277,0.4211368,-7.542775,-5.2459645
1278,0.33499518,-5.4586267,-2.62044
1279,0.23898315,-4.014259,-2.9270203
1280,2.888436,-2.5528426,-5.087739
1281,4.8505507,-2.7732813,-9.042776
1282,-0.07956135,-9.008678,-3.7295132
1283,-0.8676973,-11.964711,0.0840479
1284,-2.5085754,-13.787744,-3.0442686
1285,-1.6965113,-14.964114,-2.606083
1286,2.167299,-15.215361,-4.0480576
1287,4.8239303,-14.180764,-6.25424
1288,5.5283175,-12.697812,-5.990731
1289,4.7282176,-10.917851,-5.799305
1290,4.014259,-9.679565,-4.9103713
1291,3.4704902,-7.453942,-4.9752765
1292,2.1337996,-5.671887,-4.7835517
1293,1.6235301,-7.1425757,-0.6511469
1294,2.0524435,-9.315259,3.0762727
1295,3.4752758,-10.283155,5.6727843
1296,3.5593238,-9.480662,6.513562
1297,2.2322044,-7.69113,4.417749
1298,1.3025929,-5.942575,1.5191432
1299,-0.33110684,-6.033502,-1.3172488
1300,-6.430113,-7.913962,10.430314
1301,-10.9070835,-10.204192,13.199408
1302,-11.982657,-11.909677,17.954544
1303,-5.246563,-12.329019,11.18495
1304,-1.8906289,-13.519448,0.16331014
1305,-2.3623142,-15.2730875,3.042474
1306,-3.696612,-14.841782,-0.98674023
1307,-2.650051,-14.056039,-2.0117657
1308,1.314557,-13.184154,2.117947
1309,5.9931235,-12.707384,1.4928222
1310,7.8687973,-13.349258,-1.2765709
1311,9.282058,-14.832211,-1.8275183
1312,9.588638,-14.398511,-0.11455639
1313,8.829216,-13.8356,1.9310079
1314,6.690033,-14.156537,4.779364
1315,2.7448666,-14.8226385,8.628818
1316,-1.6223338,-15.601204,11.278271
1317,-3.0595229,-16.144972,10.559826
1318,1.326521,-16.748562,6.7244296
1319,5.3342,-16.434803,-0.43579283
1320,7.5550385,-15.184255,-6.4387865
1321,6.4408803,-13.749458,-7.4306116
1322,3.892225,-13.359129,-6.39093
1323,1.2619148,-14.376976,-5.152345
1324,-0.8150552,-16.099508,-4.788337
1325,-2.335993,-18.164215,-5.145167
1326,-3.8261235,-21.38645,-5.2698927
1327,-4.4464626,-23.32673,-0.8213364
1328,-8.437391,-24.39034,1.1596217
1329,-10.2723875,-22.095324,-0.42382872
1330,-10.99831,-17.349758,-5.3129635
1331,-13.709976,-14.712569,-7.138388
1332,-14.158032,-11.183754,-1.137488
1333,-6.5162544,-9.382557,-7.3082786
1334,-6.9305115,-7.4829545,-13.754542
1335,-7.07438,-3.9927237,-1.1398809
1336,-3.0260234,-2.78046,-0.19621146
1337,2.0380867,-3.4127634,-1.3172488
1338,6.4555364,-3.1109686,-2.2465613
1339,8.187342,-4.100401,-4.3498526
1340,7.3178496,-3.9014974,-4.996812
1341,4.5652065,-1.9301106,-3.353242
1342,2.3087747,-0.2653042,-2.795116
1343,0.6774679,1.3516457,-3.5617166
1344,0.64636123,2.2549362,-3.7390845
1345,1.1350952,2.5136602,-3.9116669
1346,2.047658,2.4514468,-3.8925242
1347,4.7952166,2.1254246,-6.282954
1348,4.7042894,1.9028922,-8.556435
1349,0.18634106,1.2726825,-7.0902324
1350,-3.2440693,-0.41605204,-1.4081762
1351,-4.961518,-4.9770713,9.186943
1352,-7.9534435,-11.92164,24.439095
1353,-15.020346,-19.922642,32.023445
1354,-12.653545,-24.775885,23.811577
1355,-10.892727,-25.190441,14.874084
1356,-8.169097,-22.24637,7.670791
1357,-4.894519,-15.97239,6.206982
1358,-3.8668015,-9.011071,4.4464626
1359,-1.2699906,-4.5891347,3.0209386
1360,-1.2556337,-2.8905299,1.0016954
1361,0.68225354,1.294218,-4.148556
1362,-3.7280176,0.78634137,-10.463215
1363,-7.754839,-3.3122647,-13.613366
1364,-12.195918,-9.902397,-5.569295
1365,-20.587547,-24.512375,22.522741
1366,-27.186953,-40.737206,0.65653074
1367,-4.0776687,-24.80699,-18.236599
1368,2.9626136,-10.290334,-12.794124
1369,2.181955,-6.946364,-10.24517
1370,-0.8916255,-7.0875406,-5.7583275
1371,0.53599226,-6.2084775,-0.6726823
1372,0.47377887,-4.8119664,-3.6720855
1373,1.9423738,-4.328018,-4.699803
1374,3.5688949,-6.948757,-4.5008993
1375,3.2285159,-10.843674,-2.8815567
1376,-0.50099725,-13.778172,-2.0718853
1377,-1.4904294,-15.011971,-5.363213
1378,0.933799,-15.15554,-3.6840496
1379,5.171488,-13.962718,-6.3287168
1380,5.844469,-12.551551,-6.4675007
1381,6.3643103,-10.618449,-5.5453663
1382,7.387242,-8.340483,-4.735695
1383,7.425527,-6.9702926,-4.9510493
1384,5.5666027,-4.558028,-5.6147585
1385,2.8908288,-4.0980077,-6.278168
1386,0.99601245,-8.481659,0.78364944
1387,1.5804594,-10.805388,4.3097725
1388,3.8970108,-11.303694,7.7497544
1389,5.0850472,-10.558629,8.607282
1390,4.7306104,-7.478169,6.9687967
1391,1.6334006,-5.6168523,6.216553
1392,-5.0189457,-7.947461,7.0142603
1393,-15.005989,-12.027224,15.2165575
1394,-13.820046,-12.305091,11.845967
1395,-5.598906,-11.916855,3.8114674
1396,0.58893347,-14.367405,5.6057854
1397,1.0869397,-16.513767,0.7932207
1398,0.581755,-15.977176,0.9945169
1399,-0.721436,-14.269299,2.1993032
1400,0.94337034,-12.860824,0.39332023
1401,2.9386854,-13.013964,-1.2020943
1402,4.9989057,-14.015361,-1.3124632
1403,6.433702,-15.474085,0.7716853
1404,6.812366,-15.215361,3.124129
1405,5.4086766,-13.754244,4.4081774
1406,3.5330026,-12.896716,5.9985075
1407,1.7482561,-12.5686,8.319844
1408,2.1050856,-12.35534,8.075478
1409,2.318346,-13.17219,6.2691956
1410,4.28734,-14.884852,3.2078779
1411,5.9500527,-16.061224,-1.329213
1412,6.7669024,-16.636099,-5.3560343
1413,5.1379886,-15.668202,-6.8748784
1414,2.6536403,-15.212968,-6.055636
1415,0.45224348,-15.790536,-5.051847
1416,-1.3564314,-16.868502,-5.439783
1417,-2.7242286,-18.533308,-5.432605
1418,-5.0165524,-22.22005,-3.99063
1419,-5.435895,-24.340092,0.18245272
1420,-6.7438717,-23.4703,0.7573284
1421,-8.166703,-21.290438,-1.1877373
1422,-8.320144,-18.281763,-6.2063837
1423,-10.732408,-15.069399,-7.641479
1424,-17.851654,-12.477374,-8.79123
1425,-13.290634,-11.420942,-3.6167514
1426,-12.86202,-8.479266,0.1585245
1427,-8.02792,-5.686244,1.1691929
1428,-3.2368908,-4.3184466,-1.8107685
1429,1.8655044,-3.499204,-4.793123
1430,5.10419,-3.958925,-3.9690945
1431,7.16441,-4.3854456,-3.1426735
1432,8.915657,-4.119543,-5.2193446
1433,6.936793,-2.8666015,-3.8850467
1434,3.880261,-0.8712866,-2.8839495
1435,2.3829522,0.57816577,-3.216851
1436,1.4033905,2.1038892,-3.475575
1437,2.2441685,3.862315,-3.5808592
1438,2.82383,5.002495,-2.8671997
1439,4.587041,5.17747,-3.99063
1440,4.5822554,4.322335,-7.4593253
1441,1.2499508,4.0274196,-7.6917286
1442,-0.4962116,1.5170496,-4.1847477
1443,-3.1480572,-1.8774685,3.6320057
1444,-6.4731836,-7.123433,16.438093
1445,-13.019946,-13.46202,27.855148
1446,-14.41885,-19.158434,25.390242
1447,-12.366107,-24.25365,21.016161
1448,-11.656935,-26.055147,13.17548
1449,-7.9917283,-23.638096,8.559425
1450,-5.895915,-17.242083,7.359425
1451,-5.962914,-11.370693,5.296812
1452,-4.4967117,-7.569096,3.1337004
1453,-0.22313072,-3.4007993,-8.700004
1454,-4.930411,-4.3926244,-12.15195
1455,-12.38525,-8.963215,-7.20778
1456,-16.927126,-16.025032,6.8778696
1457,-20.721544,-26.196323,17.453846
1458,-8.0614195,-23.139791,-15.548861
1459,1.3624134,-10.735997,-16.346567
1460,1.9591235,-7.571489,-13.766507
1461,-1.4449657,-6.402595,-6.5682983
1462,-1.6558332,-5.9377894,-3.6457644
1463,-1.1718849,-5.3147583,-3.03709
1464,-1.7036897,-5.6527443,-4.6612186
1465,-0.44835514,-6.2898335,-5.253143
1466,1.2930216,-9.571589,-4.848158
1467,4.6803613,-12.362518,-5.4924254
1468,1.4919249,-15.349658,-3.6720855
1469,-0.39810586,-17.553448,-4.421637
1470,1.5924234,-17.752352,-5.494818
1471,4.560421,-15.97239,-7.2819576
1472,5.08744,-13.17219,-7.025626
1473,4.886443,-10.913066,-5.212166
1474,5.473283,-8.702098,-4.805087
1475,5.645566,-7.300801,-3.825226
1476,3.8778682,-3.9541395,-9.588938
1477,1.8367904,-6.929315,-0.13369897
1478,3.2647073,-9.722636,4.2427735
1479,5.0850472,-10.577771,9.088838
1480,5.686543,-9.638887,12.864114
1481,4.4575295,-7.1306114,15.238092
1482,0.6200402,-4.8502517,14.519349
1483,-0.098703936,-5.219045,5.3614182
1484,-4.3579283,-8.314161,2.8845477
1485,-10.258031,-12.283256,6.15434
1486,-10.832907,-11.873784,7.98455
1487,-3.8213377,-10.819746,2.5899315
1488,-0.33349967,-12.623635,0.58474606
1489,-0.44117668,-14.444274,0.8578269
1490,0.7683952,-13.735101,0.27337998
1491,1.1039885,-13.085749,1.0782657
1492,2.3015962,-13.176975,1.0663016
1493,3.62393,-13.957932,0.03619144
1494,5.4278193,-14.688342,-1.6525432
1495,6.5703917,-15.852749,-1.9495523
1496,6.5871415,-15.969997,0.3260221
1497,4.9725847,-14.841782,3.6583266
1498,1.7506489,-13.847564,6.2141604
1499,1.2427722,-13.596018,7.6588273
1500,1.4297116,-13.97229,7.982157
1501,0.49052864,-14.793925,8.86122
1502,1.3746766,-15.524633,7.0692954
1503,2.414059,-16.35584,3.2174492
1504,3.8371902,-16.358232,-1.8753748
1505,4.939085,-15.910177,-6.611369
1506,4.1126637,-15.031114,-7.9504523
1507,1.6525432,-14.777175,-5.6506505
1508,0.38763726,-15.22254,-5.200202
1509,-0.096311115,-15.605989,-6.108278
1510,-1.1335998,-16.571493,-5.523831
1511,-3.7686956,-20.859432,-2.0527427
1512,-5.371289,-22.279871,3.248556
1513,-8.118847,-22.550558,0.19441684
1514,-9.223135,-20.123938,-1.8394824
1515,-7.196414,-16.590635,-2.6850462
1516,-6.619146,-14.293227,-6.477072
1517,-14.797514,-13.785351,-18.504894
1518,-15.180665,-10.86521,-2.9365916
1519,-11.402996,-3.9110687,1.8783658
1520,-7.266105,-2.7948167,0.15134603
1521,-2.0461624,-3.063112,-3.2407792
1522,0.5599205,-1.6857436,-2.9533412
1523,3.7989051,-3.012863,-3.0729825
1524,7.420741,-3.144468,-5.2217374
1525,7.3345995,-2.4690938,-4.4144588
1526,4.4862432,-1.1371889,-3.2216365
1527,1.9567307,0.23778675,-2.3018954
1528,1.815255,1.3926228,-3.2814572
1529,1.9615164,2.2501507,-3.7630126
1530,1.925624,3.0502508,-3.676871
1531,2.8429725,3.205784,-3.5473595
1532,4.886443,2.9614172,-7.198209
1533,3.3221352,2.3195424,-9.519546
1534,0.6128617,2.1014965,-7.327421
1535,-2.2809582,0.010169496,-0.7710871
1536,-3.1360931,-6.22762,14.196018
1537,-9.640084,-11.643774,23.679972
1538,-15.899409,-22.538595,27.33052
1539,-13.657334,-26.905497,20.594427
1540,-9.620942,-26.35455,13.436597
1541,-6.573682,-23.604597,8.866006
1542,-3.3397822,-17.536697,6.585646
1543,-2.949453,-10.156336,5.188836
1544,-2.0892332,-4.299304,4.633103
1545,-2.1828525,-2.0617158,1.5239289
1546,-2.6018956,-0.43998027,-3.1378877
1547,-4.147061,-0.7827521,-10.300204
1548,-8.542975,-5.0105705,-8.335996
1549,-13.434503,-11.200503,-3.077768
1550,-18.65654,-20.78974,9.045767
1551,-18.541683,-31.99832,5.6943197
1552,-4.1087756,-23.135006,-13.85534
1553,0.2868396,-11.440085,-12.549757
1554,-0.32392836,-7.542775,-6.9825554
1555,-3.2273195,-7.734201,-4.158128
1556,-2.4248266,-6.7522464,-2.7879374
1557,-0.33349967,-5.0081778,-2.7759733
1558,1.3097713,-5.1592245,-3.9188452
1559,2.725724,-7.451549,-6.0604215
1560,0.8739785,-10.112966,-5.3153563
1561,-1.483251,-12.90868,-2.2298117
1562,-2.515754,-14.238192,-3.9284165
1563,0.53359944,-14.43231,-4.273282
1564,4.3378882,-14.060824,-6.122635
1565,6.9320073,-12.774383,-7.0280194
1566,7.018448,-11.222338,-5.729614
1567,7.600502,-8.968,-4.261318
1568,7.049555,-7.573882,-4.045665
1569,5.2217374,-5.2980084,-5.7753763
1570,1.7554345,-5.3270216,-3.3005998
1571,1.3384851,-8.1679,1.128515
1572,2.11705,-10.378868,5.0476594
1573,3.9855452,-10.273584,8.741579
1574,4.150949,-8.920144,10.514063
1575,1.9471594,-5.6096735,11.546566
1576,-3.0260234,-4.395017,15.15913
1577,-6.331708,-6.6538415,7.663613
1578,-10.066306,-10.086645,1.7201403
1579,-11.4699955,-11.490633,6.8922267
1580,-5.519644,-11.1885395,7.2059855
1581,-0.22791636,-12.494123,3.0209386
1582,1.2284154,-14.88246,-0.39481574
1583,-0.12981063,-15.462121,0.6373881
1584,-0.88205427,-14.312369,-0.17467605
1585,-0.38853458,-12.465409,-1.058525
1586,2.656033,-11.399407,-0.8380861
1587,4.929514,-12.18515,-0.34217364
1588,7.279565,-14.590236,-2.457429
1589,7.895118,-15.661024,-1.8969102
1590,6.721439,-15.349658,1.753939
1591,3.609573,-15.0526495,5.514858
1592,0.5841478,-15.838392,7.9893355
1593,-0.18005991,-16.547266,7.7473617
1594,0.16959131,-17.083857,7.5699935
1595,0.5096712,-17.472092,7.5125656
1596,2.1026928,-17.155941,3.8330028
1597,4.725825,-15.998712,-1.1350952
1598,4.33071,-14.951852,-3.7223346
1599,3.4944184,-13.318151,-5.918946
1600,1.843969,-12.923037,-5.0662036
1601,0.7923234,-13.435699,-3.947559
1602,-0.18484555,-14.444274,-4.2541394
1603,-1.1814562,-15.114862,-4.7021956
1604,-3.4307094,-17.455341,-3.7510486
1605,-4.753043,-20.569302,-0.5195416
1606,-6.6622167,-21.956541,0.16331014
1607,-8.468498,-20.622242,-0.34217364
1608,-8.641081,-18.530916,-1.4321043
1609,-7.579864,-15.725631,-1.6788642
1610,-6.9595246,-13.267902,-4.1126637
1611,-18.84348,-13.5074835,-21.242882
1612,-13.417753,-11.346765,-2.2465613
1613,-8.442178,-5.631209,0.83389866
1614,-4.4775696,-3.6403806,-1.2837493
1615,-1.2580265,-3.891926,-3.2814572
1616,1.9304097,-3.4366915,-3.3918262
1617,5.3653064,-3.484847,-4.234997
1618,8.070093,-3.6547375,-4.8529434
1619,5.753542,-3.4704902,-4.1318064
1620,2.9482565,-1.3839488,-2.6778677
1621,2.1385853,0.40079778,-2.864807
1622,1.1350952,1.7733806,-3.094817
1623,1.9998015,3.1483564,-3.0681968
1624,1.6836498,3.9245281,-2.7376883
1625,3.839583,3.9747775,-2.2875385
1626,5.94766,2.7628129,-5.7607207
1627,2.5794628,1.4045869,-8.9348
1628,-0.6329016,0.887139,-5.442176
1629,-2.693122,-1.9731814,2.3670998
1630,-4.968696,-6.4911294,15.055939
1631,-13.03191,-13.63221,30.823145
1632,-14.699409,-20.308186,25.497917
1633,-11.494223,-22.404297,22.472492
1634,-10.325029,-22.727926,10.736895
1635,-7.9654074,-21.108286,8.334201
1636,-4.837091,-14.365011,5.502894
1637,-4.453641,-7.7679996,5.038088
1638,-4.0010986,-4.004688,2.038984
1639,-1.3253247,-1.0268201,-5.047061
1640,-1.7036897,0.81266236,-14.303098
1641,-6.585646,-1.3384851,-10.947164
1642,-12.459428,-6.795317,-6.5682983
1643,-22.058235,-17.289938,13.04866
1644,-27.241987,-38.130825,12.183954
1645,-9.824331,-35.260933,-14.7870455
1646,3.226123,-15.177075,-17.98984
1647,2.3901308,-9.202796,-9.6942215
1648,-1.7108682,-8.606385,-4.735695
1649,-1.3827524,-6.9101725,-2.6252255
1650,-0.23748764,-5.7317076,-2.3832514
1651,2.167299,-5.5854464,-3.880261
1652,2.7999015,-7.516454,-8.448758
1653,-0.9945169,-11.341979,-3.3101711
1654,-2.9327033,-13.169797,-3.528217
1655,-1.3181462,-13.591232,-3.0203404
1656,3.6526437,-12.225828,-4.534399
1657,6.5488563,-11.330015,-5.6243296
1658,6.5464635,-10.362119,-5.3009996
1659,7.260422,-8.687741,-4.766802
1660,7.286743,-7.5571322,-3.9451663
1661,6.9873414,-6.812067,-3.5401812
1662,5.523532,-5.4873405,-7.4138618
1663,1.7697915,-6.6684976,-3.255136
1664,0.84047896,-9.945468,0.9275179
1665,2.076372,-12.362518,4.805685
1666,3.973581,-11.84507,10.320244
1667,4.2299123,-9.64128,13.386347
1668,1.8200407,-5.6359944,12.140584
1669,-1.849951,-3.8727834,10.890334
1670,-5.9748783,-5.7891355,6.38435
1671,-10.320244,-9.23151,-0.6897311
1672,-11.398211,-11.253445,5.2680984
1673,-5.2250276,-11.7685,9.263813
1674,-0.8150552,-13.0355,7.004689
1675,1.7673986,-16.027426,1.9453648
1676,1.0175478,-16.961823,-0.14087744
1677,-1.4808581,-15.833607,0.19680966
1678,-3.572185,-13.981861,0.56799626
1679,-0.87966144,-12.436696,-1.3794622
1680,2.9940193,-12.798311,-1.5400804
1681,4.191627,-14.29562,-0.99631155
1682,6.4360948,-15.397514,-1.2239288
1683,7.3609204,-15.833607,-0.541077
1684,5.5857453,-15.713666,2.1490538
1685,3.4393835,-15.495919,4.616353
1686,0.21266212,-15.739987,8.128119
1687,0.23659034,-15.2730875,8.935398
1688,1.4895321,-15.852749,9.970294
1689,3.6000016,-16.228722,7.9390864
1690,5.0587263,-15.668202,0.9346963
1691,4.4072804,-14.408082,-5.2363935
1692,3.9664025,-12.559029,-7.7682986
1693,2.8166513,-12.177972,-6.958627
1694,1.166202,-12.520445,-5.363213
1695,-0.12023934,-13.567305,-4.3187456
1696,-1.4976078,-14.731711,-5.185845
1697,-3.1866415,-17.19901,-4.685147
1698,-4.005884,-20.059332,0.09361918
1699,-6.1905313,-21.910778,1.861616
1700,-7.7763743,-20.90011,0.56799626
1701,-7.8314095,-18.547667,-1.2813566
1702,-6.7869425,-15.797714,-1.4874383
1703,-6.856334,-12.911073,-6.489036
1704,-11.019846,-13.639388,-12.2120695
1705,-8.760722,-11.0449705,-1.4727824
1706,-6.7390857,-6.3807607,0.14416756
1707,-1.4497514,-3.6379876,-1.2765709
1708,0.4642076,-4.1482573,-2.074278
1709,1.681257,-5.386842,-2.102992
1710,4.874479,-6.2754765,-3.9140596
1711,6.1848483,-5.1209397,-5.6554365
1712,3.4250264,-3.760321,-4.2038903
1713,1.5780666,-2.3829522,-3.0610185
1714,0.4354937,-0.83778703,-3.813262
1715,0.54317075,0.62123656,-3.664907
1716,1.2116655,1.591227,-3.8347974
1717,1.911267,2.216651,-3.8850467
1718,3.0011978,2.2956142,-4.4985065
1719,3.415455,1.7183458,-5.47089
1720,0.37328035,1.334896,-7.11446
1721,-2.606681,1.8667008,-5.348856
1722,-3.804588,0.37686956,0.47946185
1723,-4.1757746,-3.0559337,9.457631
1724,-7.036095,-8.62792,23.10719
1725,-12.485748,-15.361622,25.284956
1726,-13.652549,-19.026829,20.120049
1727,-11.501401,-19.407587,14.933906
1728,-9.268599,-19.55624,8.734401
1729,-6.535397,-17.021643,6.899405
1730,-4.959125,-12.058331,5.6440706
1731,-4.681258,-8.2014,1.4590236
1732,-3.682255,-5.130511,1.1476575
1733,-1.753939,-1.1587243,-8.724232
1734,-6.4348984,-0.37776688,-7.7036924
1735,-13.753047,-4.7829533,-1.654936
1736,-17.95963,-14.42244,15.856039
1737,-16.232311,-25.09682,9.49143
1738,-8.200203,-26.651558,-16.351353
1739,0.15284155,-14.626128,-16.746767
1740,0.61764735,-9.70828,-9.37807
1741,-2.6548367,-7.75125,-3.7917266
1742,-3.505186,-6.821638,1.8999012
1743,-2.2259233,-5.753243,-2.6778677
1744,-1.5646069,-5.07069,-3.7534413
1745,-1.2197413,-5.9090757,-4.208676
1746,1.6043876,-8.230113,-4.29721
1747,2.9724839,-10.220942,-4.503292
1748,-0.16570297,-14.748462,-3.947559
1749,-0.7286145,-16.425232,-7.411469
1750,1.2978072,-17.04557,-6.0050874
1751,4.455137,-15.91257,-7.466504
1752,5.2049875,-13.636995,-5.7463636
1753,4.5918264,-11.416157,-4.5415773
1754,5.243273,-9.585947,-3.7558343
1755,5.0395837,-7.1856465,-3.5210385
1756,3.501597,-5.0994043,-5.2866426
1757,3.2934213,-6.922137,0.46989053
1758,4.7808595,-9.245867,4.7171507
1759,5.1089754,-9.456735,8.959625
1760,5.0132627,-9.473484,11.795718
1761,2.5507488,-6.9101725,13.558929
1762,-0.13220344,-5.341378,10.607682
1763,-1.9097716,-5.1472607,6.722037
1764,-4.7602215,-6.8910303,-0.035593238
1765,-8.703294,-10.216156,0.5799604
1766,-11.172986,-11.92164,9.165408
1767,-6.3101726,-10.944173,4.5158544
1768,-3.0092735,-11.710773,2.2519453
1769,-0.7118647,-14.171193,3.138486
1770,-0.78634137,-15.201004,0.90329057
1771,-0.053240303,-14.465809,1.5406786
1772,-1.1790633,-12.894323,1.4087744
1773,0.2748755,-11.952747,-1.8011973
1774,3.1112676,-12.264113,-1.4898312
1775,6.6349983,-13.452449,-2.8432715
1776,8.187342,-14.461023,-3.7247276
1777,8.479566,-14.357833,-1.1422737
1778,5.193023,-14.077574,3.5551362
1779,3.0993035,-14.343476,5.232206
1780,0.06669993,-14.997614,6.192625
1781,0.44506502,-15.737595,6.7842503
1782,0.9768698,-16.413267,8.032407
1783,2.169991,-17.268402,9.21805
1784,3.9711883,-17.273188,3.3804603
1785,5.020441,-16.571493,-0.19860429
1786,4.1054854,-14.911174,-5.8375897
1787,3.025126,-13.502698,-8.34796
1788,0.9696914,-13.200904,-7.0351977
1789,-0.40289152,-13.615161,-5.5669017
1790,-1.7012969,-14.475381,-4.915157
1791,-2.992524,-15.201004,-4.503292
1792,-4.566403,-16.940287,-2.169991
1793,-5.7616177,-19.395622,0.22313072
1794,-7.90798,-20.305792,-0.15553348
1795,-7.4240313,-18.68645,0.1274178
1796,-7.819445,-16.916359,-1.4273187
1797,-6.178567,-14.017754,-1.6453646
1798,-10.293923,-13.473985,-8.652147
1799,-21.809082,-13.229617,-17.283358
1800,-14.828621,-10.8867445,-1.0896316
1801,-8.003992,-4.2705903,1.8185452
1802,-4.2499523,-3.592524,-0.12891331
1803,0.6583253,-3.501597,-1.4464613
1804,4.599005,-3.8895333,-2.062314
1805,7.739286,-5.0344987,-3.0083764
1806,9.742078,-4.8622155,-4.436293
1807,5.7870417,-3.918247,-2.440679
1808,4.1222353,-3.214159,-1.9280169
1809,1.7673986,-1.6354942,-2.14367
1810,1.7793628,-0.45673,-3.0729825
1811,1.640579,0.7193423,-3.269493
1812,2.265704,1.6776677,-3.566502
1813,3.892225,2.5878377,-4.3115673
1814,4.7976093,2.5351956,-4.831408
1815,3.0969107,2.8082764,-7.648658
1816,0.13609178,3.1962128,-6.515357
1817,-2.2474587,2.1687946,-2.5701907
1818,-4.3148575,-1.7982062,6.2934227
1819,-7.982157,-8.381161,16.86222
1820,-13.674084,-15.457335,26.06083
1821,-12.952948,-22.792534,21.078375
1822,-10.950454,-24.914967,14.176876
1823,-8.372786,-23.817858,9.637392
1824,-6.314958,-19.745274,8.303095
1825,-4.429713,-12.923037,6.7316084
1826,-4.2164526,-7.5810604,4.6642094
1827,-4.3292146,-6.6562343,4.302594
1828,-6.4420767,-7.262516,2.6306095
1829,-7.170093,-9.269794,-4.8601217
1830,-9.826724,-11.919248,-6.2662044
1831,-12.835699,-16.085152,-1.0968101
1832,-11.139486,-19.680668,3.6918263
1833,-6.329315,-18.782461,-1.5496517
1834,-1.971985,-11.432906,-11.327922
1835,-1.3660027,-8.352447,-11.771192
1836,-1.9073788,-4.1865425,-7.112067
1837,-2.5396821,-4.0740795,-4.3929234
1838,-2.527718,-4.2104707,-1.805983
1839,-1.1144571,-4.0788655,-3.2001011
1840,-0.30717862,-4.3064823,-7.099804
1841,1.7913269,-5.8250275,-9.509675
1842,2.2465613,-6.598807,-10.019945
1843,1.7721843,-14.568701,-1.4656038
1844,-1.0522437,-16.520945,-0.50039905
1845,0.06430711,-17.076677,-3.3340993
1846,2.373381,-17.407486,-6.9418774
1847,4.246662,-15.304194,-7.0280194
1848,4.922335,-13.002,-6.7429743
1849,5.1065826,-11.119147,-6.316753
1850,4.7401814,-9.104691,-5.044668
1851,3.635894,-5.688637,-6.5754766
1852,2.2704897,-5.171189,-4.383352
1853,1.695614,-7.923533,1.576571
1854,3.5904303,-10.347761,6.793822
1855,4.898407,-9.595518,9.917651
1856,4.627719,-7.990532,11.163415
1857,1.5278172,-4.5098724,11.472388
1858,-1.9648064,-3.4896326,14.6536455
1859,-5.3159547,-5.317151,9.843474
1860,-4.1231327,-5.769993,-2.6132615
1861,-8.356036,-11.797214,1.0423734
1862,-4.302893,-12.891931,6.4609203
1863,1.041476,-13.7063875,6.760322
1864,1.2284154,-15.495919,2.2666013
1865,-0.005383851,-15.562919,2.146661
1866,-3.3278182,-14.880067,1.3633107
1867,-3.0188448,-12.587743,-0.68255264
1868,0.33260235,-10.927423,-3.243172
1869,3.3340993,-11.512169,-1.3435699
1870,5.0994043,-13.32533,-0.22492532
1871,7.5382886,-14.760426,-0.40438703
1872,8.65454,-15.524633,-0.53629136
1873,7.6603227,-15.098113,1.047159
1874,3.839583,-14.156537,5.0620165
1875,0.32063824,-13.989039,8.039585
1876,-0.9083753,-13.854742,9.357133
1877,-1.4162519,-14.501701,8.815757
1878,-1.1527423,-14.860924,7.852646
1879,0.8333005,-15.874285,3.9984066
1880,5.2289157,-15.378372,-4.7045884
1881,6.5225353,-14.841782,-8.314461
1882,4.7306104,-14.453845,-7.9719877
1883,2.9004002,-14.609379,-6.2662044
1884,1.8224336,-15.033506,-5.672186
1885,0.13130614,-15.919748,-5.7487564
1886,-2.02702,-18.396618,-5.442176
1887,-4.0034914,-21.115763,-2.768795
1888,-5.986842,-23.635704,-0.10977074
1889,-8.008778,-23.087149,0.012263216
1890,-8.727222,-20.06651,-0.5458627
1891,-6.858727,-16.020247,-3.05384
1892,-5.7281184,-12.774383,-7.4306116
1893,-14.826228,-12.290733,-18.19592
1894,-14.421243,-10.1802635,-6.3598237
1895,-13.228421,-6.050252,-1.9615164
1896,-6.4157557,-2.126621,1.317847
1897,-4.583153,-1.4772689,-0.04755735
1898,-0.98016,-1.8559331,-1.6597216
1899,4.060022,-2.5815566,-3.5042887
1900,7.016055,-2.1119652,-4.019344
1901,6.9415784,-1.8101703,-3.3293135
1902,5.2815576,-1.4461622,-3.2264223
1903,3.0729825,-1.599602,-2.6682963
1904,1.5134603,-0.5599205,-3.1785657
1905,1.0199406,0.8030911,-2.9533412
1906,1.2690933,1.1650056,-2.984448
1907,1.7650058,1.864308,-3.1043882
1908,3.3699915,2.20708,-3.9284165
1909,2.5842485,2.4008985,-5.5070815
1910,3.039483,2.4296124,-6.40768
1911,-0.34307095,0.7217351,-5.4349976
1912,-3.095415,-2.478665,2.5707889
1913,-5.8046885,-8.122437,14.004293
1914,-10.066306,-15.47887,27.359236
1915,-15.396318,-23.228325,31.369307
1916,-13.731512,-30.513275,22.635504
1917,-8.619545,-31.399515,13.336098
1918,-4.4321055,-23.669203,7.5723863
1919,-3.246462,-15.117255,5.174479
1920,-3.560221,-9.454341,3.4043884
1921,-3.0355947,-3.1396823,1.6076777
1922,-2.6668007,-1.4270196,1.2077773
1923,-6.101698,-2.6198416,0.2853441
1924,-7.9462647,-5.875576,-5.538188
1925,-8.224132,-8.275876,-7.246065
1926,-9.72144,-13.8691,-8.587542
1927,-10.969596,-17.893528,-2.7616165
1928,-10.2723875,-24.136402,5.9769716
1929,-8.588439,-21.118155,-4.345067
1930,-2.0150557,-10.381261,-9.457033
1931,-1.5071791,-6.869495,-7.9887376
1932,-2.4391835,-6.4648085,-5.5405807
1933,-2.2737796,-5.6383877,-3.6457644
1934,-1.2005987,-4.922036,-3.3077781
1935,0.95054877,-4.3878384,-3.554538
1936,2.9578278,-6.280262,-6.4005013
1937,1.5828521,-9.305687,-3.1809585
1938,-2.4511478,-12.07508,-1.1853445
1939,-1.9456639,-13.840385,-3.6672997
1940,1.3384851,-13.8092785,-5.087739
1941,5.8875403,-12.716955,-6.9873414
1942,6.3643103,-12.271292,-7.179066
1943,6.8985076,-10.630414,-5.904589
1944,6.6014986,-9.334401,-5.5334024
1945,6.7381887,-8.345268,-4.9103713
1946,5.8947186,-7.5236325,-5.1619167
1947,2.11705,-5.808278,-5.4349976
1948,0.74207413,-8.647063,0.27337998
1949,1.5804594,-11.749357,3.9170506
1950,3.7005002,-11.152647,9.793225
1951,4.0648074,-9.573982,11.86511
1952,2.2417758,-5.5977097,10.51167
1953,-0.06999006,-4.775775,9.09123
1954,-4.267001,-5.84417,4.2595234
1955,-10.135697,-9.995717,-0.22013968
1956,-12.128919,-11.662917,5.732605
1957,-4.9064827,-11.552847,6.6358953
1958,0.16241284,-12.661921,7.3064837
1959,3.2045877,-15.471692,6.7316084
1960,2.1577277,-16.784454,3.313162
1961,-0.18484555,-15.931712,1.5239289
1962,-3.560221,-13.045071,-0.5099703
1963,-2.4104698,-11.068898,-3.2407792
1964,0.9314062,-10.776675,-3.528217
1965,4.299304,-12.417553,-1.4679967
1966,6.8315086,-14.705391,-1.5017953
1967,7.758428,-15.517455,-1.1757733
1968,6.4698935,-15.670595,0.30927232
1969,3.4202409,-16.073189,3.4019957
1970,0.43070808,-16.954643,6.1304116
1971,-1.0399805,-17.021643,8.006085
1972,-1.5335002,-17.4697,10.614861
1973,-0.6017949,-17.680567,11.723933
1974,2.9626136,-16.815561,7.3713894
1975,5.2887363,-16.101902,0.16570297
1976,5.1403813,-15.086148,-4.740481
1977,5.0395837,-13.440485,-8.225926
1978,2.57707,-12.3194475,-7.7300134
1979,0.8042875,-12.606885,-5.9500527
1980,-0.695115,-13.550554,-5.5597234
1981,-2.4607189,-14.932709,-6.175277
1982,-3.4354951,-16.401304,-6.072386
1983,-4.3579283,-18.5692,-2.2824538
1984,-6.645467,-20.059332,3.298805
1985,-8.413464,-19.431515,3.054438
1986,-7.8888373,-16.379768,0.5344968
1987,-6.940382,-13.469198,-6.110671
1988,-11.647364,-12.743276,-12.770195
1989,-8.003992,-11.627025,-5.317749
1990,-9.654441,-8.026724,-1.058525
1991,-7.400103,-4.7805605,0.29012975
1992,-2.309672,-3.4920256,-2.0934207
1993,2.1337996,-4.1865425,-2.3449662
1994,5.4038906,-4.8598228,-2.8313074
1995,8.558528,-5.250152,-4.33071
1996,7.518847,-4.208078,-4.261318
1997,3.635894,-3.0320053,-2.9629126
1998,1.6932211,-2.0760727,-2.4646072
1999,0.32542387,-0.65084773,-3.0418758
2000,0.81625164,1.049851,-3.6457644
