,ax,ay,az
501,-9.913165,-20.591137,8.276773
502,-6.094519,-15.977176,6.7651076
503,-7.1509504,-12.317055,8.063513
504,-8.969196,-12.194721,1.6890336
505,-7.9558363,-11.849856,-7.90469
506,-15.118452,-12.839288,-4.781159
507,-19.16681,-15.888641,1.0854442
508,-12.969697,-14.537594,1.0615159
509,-11.910872,-14.597415,1.861616
510,-5.2441697,-10.187443,-12.626327
511,-0.36460635,-5.10419,-12.9185505
512,-0.27846473,-3.824927,-7.995916
513,-1.3229318,-4.692026,-7.1072817
514,-1.3683954,-4.9531426,-5.890232
515,-1.4162519,-4.694419,-6.146563
516,-0.7477571,-5.0659046,-7.6292157
517,0.40677986,-5.9521465,-8.805588
518,2.0739791,-8.009974,-11.284851
519,0.7396813,-13.267902,-3.1139596
520,-2.376671,-19.148863,-0.8380861
521,-1.4976078,-20.207685,-4.388138
522,2.6608188,-19.122541,-8.091629
523,2.6536403,-16.188044,-6.2374907
524,1.0725827,-14.360226,-5.4445686
525,1.7841483,-11.694023,-4.6396832
526,2.23699,-9.3562355,-3.9690945
527,1.9902302,-5.278866,-7.648658
528,1.939981,-5.9114685,-0.4334
529,0.8282157,-8.479266,7.2993054
530,1.2379866,-9.868599,11.853146
531,1.9471594,-10.31187,14.088342
532,2.1771696,-8.50798,14.076378
533,2.57707,-7.1952176,6.4680986
534,3.5712879,-6.364011,-3.2599218
535,0.9912268,-7.7943206,-3.9810586
536,-1.5454643,-7.8493557,-2.4047868
537,-6.645467,-8.896215,7.0788665
538,-11.412567,-10.170692,11.9922285
539,-9.582357,-10.173085,8.329415
540,-6.159425,-10.390832,4.252345
541,-3.612863,-13.275081,4.456034
542,-2.4511478,-15.17229,1.602892
543,-3.5267215,-15.428621,-0.14596218
544,-5.392824,-14.741283,0.65653074
545,-2.1661026,-13.021143,0.6206384
546,0.14566308,-14.238192,-0.32542387
547,4.0648074,-16.09233,0.5919245
548,6.00748,-16.801205,1.6244274
549,6.620641,-16.554445,3.464209
550,5.399105,-15.0526495,4.812864
551,3.4345977,-13.842778,5.7616177
552,2.7113671,-12.944572,6.595217
553,1.8607187,-13.095619,7.0118675
554,2.9338996,-14.283656,5.3255258
555,6.7669024,-15.946069,0.055334024
556,5.8827543,-16.581064,-3.8228333
557,4.0528436,-15.45255,-6.7812595
558,2.030908,-14.305191,-6.9035926
559,-0.029312078,-14.50888,-4.613362
560,-2.0006988,-15.28266,-4.793123
561,-3.667898,-16.499409,-5.49751
562,-6.9305115,-19.357336,-4.77398
563,-9.4890375,-23.144577,-3.336492
564,-11.649756,-25.17369,-0.7543373
565,-12.047563,-21.745672,-2.6778677
566,-10.437792,-17.565413,-3.8635113
567,-12.464213,-14.417654,-4.7835517
568,-13.592429,-10.750354,-3.243172
569,-16.915163,-8.505588,-6.6687965
570,-10.327422,-9.6173525,-7.0782685
571,-6.058627,-4.7829533,-1.5664015
572,-1.4090735,-2.4762723,-2.1197417
573,-0.43878385,-2.2414765,-2.0455642
574,3.214159,-3.1253254,-2.3449662
575,4.6037908,-3.822534,-2.347359
576,8.359924,-5.048856,-4.340281
577,7.8424764,-4.742275,-4.510471
578,5.578567,-3.6284165,-3.0681968
579,2.71376,-2.2821546,-2.3641088
580,1.082154,-0.011365907,-2.3808584
581,1.2786646,1.0067801,-3.025126
582,0.933799,2.269293,-3.4253256
583,2.1577277,2.8178477,-2.9557343
584,3.4513476,2.5591238,-3.3029926
585,2.9243283,1.9292133,-6.843772
586,0.46181476,1.8762721,-6.539285
587,-3.0403802,0.2955136,-0.98674023
588,-4.0274196,-3.5183465,7.4886374
589,-7.9486575,-11.478371,20.872293
590,-13.007982,-18.511774,25.761427
591,-12.655938,-21.187548,22.21377
592,-11.163415,-20.87618,14.41885
593,-10.679766,-19.791037,8.018049
594,-6.5258255,-15.102899,5.3829536
595,-4.1997027,-8.867501,4.523033
596,-4.8969116,-5.7412786,2.0724835
597,-4.647759,-2.7708886,1.2197413
598,-5.366503,-0.2748755,-9.553045
599,-11.187344,-2.0353947,-7.0375905
600,-21.804296,-11.1885395,1.657927
601,-22.300209,-21.592234,13.477275
602,-16.253845,-30.3718,-3.6314075
603,-5.7759748,-24.035604,-18.710976
604,1.1542379,-13.023536,-18.88595
605,0.3397808,-6.6370916,-6.9993052
606,-1.9408783,-5.8683977,0.24466611
607,-2.4032912,-5.532804,1.6268203
608,-1.7228323,-4.965107,-4.6037908
609,-0.81266236,-4.5891347,-5.899803
610,-1.2484552,-5.9904313,-6.4698935
611,-0.9610174,-7.949854,-6.1010995
612,2.1771696,-10.822139,-6.0747786
613,-0.38135612,-15.486049,-4.009773
614,-1.6271194,-18.058931,-3.2120652
615,0.8380861,-17.371593,-6.4005013
616,5.319843,-15.601204,-8.307282
617,3.6861434,-13.610375,-6.105885
618,2.9219356,-11.662917,-4.922335
619,2.9004002,-9.552447,-3.964309
620,3.9376888,-7.4252276,-3.3077781
621,3.3293135,-5.1759744,-3.6744783
622,2.2848465,-5.6383877,-1.0872388
623,1.5517455,-8.295019,4.4656053
624,1.9902302,-10.170692,7.917551
625,2.9195428,-10.752747,11.484352
626,3.1686954,-9.698709,11.151451
627,2.5124638,-7.3486576,5.5579286
628,1.4608182,-5.973682,0.048155557
629,-0.9825528,-6.038288,1.4904294
630,-5.162814,-7.84457,6.195018
631,-9.642477,-9.717851,7.1078796
632,-11.09163,-10.654342,6.8395844
633,-7.876873,-11.123934,2.9515467
634,-3.9577286,-13.349258,4.6211386
635,-2.5492535,-15.943676,3.1025937
636,-2.0006988,-15.8025,0.73818576
637,-2.187638,-14.38894,1.6866409
638,-0.33589247,-12.374482,0.59671015
639,1.7434704,-12.3194475,-0.6056832
640,4.0310087,-13.792529,-0.26081768
641,6.7334027,-15.500705,0.49860442
642,7.1476603,-15.914963,1.387239
643,6.352346,-15.277873,2.4939194
644,4.51735,-14.587843,3.2700913
645,2.2848465,-14.209478,4.467998
646,1.6477575,-14.079967,6.2380886
647,0.95054877,-14.81546,5.117051
648,1.6187445,-16.494623,2.417349
649,3.5712879,-17.220547,-1.3818551
650,1.7530417,-16.068401,-3.434897
651,0.20548365,-14.480166,-4.223033
652,-0.68075806,-13.72553,-3.8371902
653,-1.6893328,-13.701602,-3.8898323
654,-2.824727,-13.960325,-4.4168515
655,-5.1029935,-14.951852,-4.6950173
656,-7.0025954,-16.801205,-4.08395
657,-9.000303,-20.986252,-2.1484556
658,-9.388538,-21.209084,-0.38524446
659,-11.264213,-20.725134,-1.6860427
660,-11.369496,-16.18565,-4.280461
661,-12.435499,-13.512269,-3.3005998
662,-14.19871,-11.524133,-3.8997028
663,-12.629617,-11.61506,-9.234201
664,-10.969596,-10.07468,-5.538188
665,-6.1160545,-5.0754757,0.38344982
666,-1.1742777,-3.3003006,-2.9222345
667,2.1505494,-3.9254255,-4.026522
668,1.7410775,-4.028616,-1.791626
669,5.8396835,-4.200899,-2.3449662
670,7.921439,-5.535197,-4.634897
671,7.274779,-5.2046885,-4.42403
672,4.0310087,-2.9745777,-2.7759733
673,1.4871392,-1.055833,-2.5052853
674,0.6415756,0.52283174,-2.8839495
675,0.84047896,1.5936198,-4.0911283
676,0.66071814,2.8250263,-3.9667017
677,0.770788,3.4884362,-3.7534413
678,1.7506489,3.277868,-3.9116669
679,1.966302,2.6811578,-7.042376
680,0.02841477,2.3075783,-6.6759753
681,-1.9002002,0.88235337,-3.4923246
682,-3.1552358,-2.8378878,3.7325041
683,-4.2981076,-9.578768,17.688643
684,-10.873585,-17.668602,28.64807
685,-13.659727,-22.754248,23.495424
686,-11.192129,-22.538595,20.774187
687,-10.2317095,-20.962322,12.492927
688,-6.7582283,-16.437197,7.862217
689,-4.8825545,-9.58834,6.242874
690,-4.1925244,-6.256334,5.6943197
691,-3.653541,-4.6465626,-2.7855446
692,-2.2139592,-2.454737,-12.789338
693,-9.460323,-3.8464625,-8.630612
694,-17.78944,-8.670991,-2.361716
695,-25.622644,-18.003897,7.433603
696,-24.51357,-34.987854,14.258232
697,-3.8476589,-24.62753,-18.52643
698,4.8601217,-12.002996,-19.94956
699,0.40677986,-8.639884,-9.507282
700,-0.8389834,-6.392725,-3.7366917
701,-0.16091733,-4.555635,-1.3627125
702,1.1039885,-3.170789,-4.3211384
703,4.9677987,-1.556232,-9.478569
704,6.8889365,-1.3360924,-12.614363
705,0.11216356,-6.8479595,-9.459426
706,-0.6759724,-10.105787,-1.5975082
707,-2.678765,-13.945969,2.0988045
708,-1.8930218,-15.891034,0.13220344
709,0.07148558,-16.39891,-3.487539
710,4.800002,-15.483656,-7.8759756
711,3.7749767,-14.597415,-6.759724
712,3.3053854,-12.858431,-6.1010995
713,3.187838,-11.186147,-6.0843496
714,2.1433709,-9.842278,-4.924728
715,2.0404794,-7.70788,-4.7524447
716,1.721935,-6.308976,-3.3005998
717,0.3684947,-9.08794,4.822435
718,1.6334006,-10.067502,8.183454
719,2.5172493,-10.237692,10.047163
720,2.2800608,-8.678169,9.326026
721,1.0127622,-7.430013,6.463313
722,-0.41485563,-6.3329043,3.2150564
723,-0.9921241,-4.8287163,1.7395821
724,-5.8672013,-6.7522464,2.5325036
725,-9.235099,-8.9775715,1.3657036
726,-12.021242,-11.181361,10.576575
727,-8.617152,-11.111969,10.986047
728,-4.173382,-13.2870455,2.7215366
729,-2.8486555,-15.914963,1.8687944
730,-4.022634,-18.111574,2.6712873
731,-2.204388,-16.001104,-0.3493521
732,1.0462617,-13.552947,1.3298112
733,4.831109,-12.980465,0.232702
734,6.639784,-13.639388,-1.0322039
735,8.5322075,-15.110077,-1.3890336
736,9.277272,-15.059828,0.5775676
737,7.5406814,-14.875281,2.8893332
738,4.395316,-15.191433,5.895616
739,1.6334006,-15.2419815,7.332805
740,-1.5960127,-15.201004,8.063513
741,-2.2402802,-14.61895,6.6885376
742,0.5841478,-16.501802,4.132405
743,4.1150565,-16.664814,-0.8955139
744,3.7339997,-15.27548,-5.6985073
745,1.9926231,-13.787744,-7.435397
746,-0.20877378,-13.718351,-6.014659
747,-2.161317,-14.439488,-4.34746
748,-4.4225345,-16.101902,-4.6396832
749,-6.365207,-18.514166,-4.0480576
750,-9.242277,-23.068007,-2.6108687
751,-10.559826,-24.498018,0.41485563
752,-10.222138,-22.768604,-0.8069794
753,-10.746765,-19.326231,-0.61046886
754,-13.956737,-16.166508,-6.148956
755,-14.382957,-11.916855,-6.2350974
756,-7.5607214,-11.876177,-4.1557345
757,-8.293822,-9.432806,-4.438686
758,-4.631009,-5.889933,0.93230355
759,-1.6390835,-4.0334015,-2.0407786
760,1.7673986,-3.8967116,-2.495714
761,3.7917266,-4.282554,-2.5821548
762,7.190731,-6.2060847,-5.9141603
763,6.903293,-5.9210396,-5.6578293
764,4.232305,-4.1697927,-3.9164524
765,2.2752752,-1.8918254,-2.8142586
766,1.3794622,-0.5240282,-3.554538
767,1.2284154,1.7255242,-3.7223346
768,2.3039892,3.4884362,-4.4315076
769,2.874079,4.6600223,-4.4482574
770,3.1375887,4.3725843,-4.8003016
771,2.5579274,4.310371,-6.6257257
772,-0.4531408,3.6873398,-7.77787
773,-3.301497,2.2812574,-4.138985
774,-3.2799616,-0.70588267,2.0868404
775,-3.382853,-4.0812583,9.862617
776,-7.974979,-12.594921,29.115267
777,-12.217453,-16.535301,24.637997
778,-11.24507,-18.293728,20.901007
779,-9.199206,-18.564415,18.4696
780,-8.308179,-19.783857,10.2361965
781,-7.6588273,-17.486448,9.119945
782,-8.533105,-13.344473,8.549854
783,-6.422934,-9.600304,-3.825226
784,-1.3683954,-1.9396819,-18.310776
785,-5.328218,1.8068802,-11.234601
786,-17.990736,-3.3146574,-0.095413804
787,-23.943481,-12.54198,10.121341
788,-22.374388,-26.026432,28.140192
789,-6.748657,-32.455948,-17.723936
790,8.992228,-14.044074,-27.452255
791,3.5377884,-10.949257,-14.883058
792,-1.6151553,-7.396514,-3.350849
793,-2.6090739,-6.47438,-0.84047896
794,-2.077269,-5.3075795,-0.6678966
795,-0.9634102,-4.684848,-4.134199
796,0.8428718,-4.1889353,-6.6089764
797,2.2178476,-5.142475,-8.012666
798,-0.898804,-10.27837,-4.273282
799,-2.420041,-14.003396,-1.1877373
800,-3.5506496,-16.173687,-1.4703895
801,-2.2187448,-16.957037,-0.8859426
802,1.8846469,-15.893427,-5.7607207
803,4.9582276,-13.828422,-6.937092
804,3.8347974,-12.834502,-4.814658
805,4.2538404,-9.900004,-5.1092744
806,4.17727,-8.910572,-4.028915
807,3.5353954,-6.2060847,-5.3153563
808,2.5698915,-6.4648085,-2.0694926
809,1.1949158,-8.862716,3.464209
810,2.2058833,-10.1802635,6.70768
811,3.336492,-10.333405,9.096016
812,3.6598222,-9.284152,9.131908
813,3.0729825,-6.9344,4.6283174
814,2.768795,-5.901897,1.3800604
815,0.74207413,-5.192724,-0.24885355
816,-3.315854,-6.3185472,4.4608197
817,-9.254242,-9.058928,8.540283
818,-12.7037945,-10.630414,10.037592
819,-6.7343,-10.58495,5.840581
820,-4.072883,-12.642777,4.2092743
821,-2.7194428,-16.511374,4.6956153
822,-3.1552358,-18.456738,2.2399812
823,-2.7338,-16.813168,-0.04995017
824,0.2222334,-13.524234,-1.151845
825,3.6717863,-12.640385,-1.0274183
826,6.5943203,-13.97229,0.19920248
827,8.793324,-15.601204,-0.12173485
828,9.768399,-15.9484625,1.0615159
829,8.39821,-14.968901,1.942972
830,3.595216,-13.531412,5.323133
831,1.3866407,-13.615161,7.615457
832,-0.11545369,-13.885849,9.544072
833,-0.9729815,-15.119648,11.306984
834,-0.8533404,-16.537695,9.273384
835,3.882654,-16.921144,0.19441684
836,5.9548383,-16.370197,-6.065207
837,5.751149,-15.493228,-7.665407
838,3.0993035,-14.444274,-7.936095
839,0.6343971,-14.453845,-5.916553
840,-0.8437691,-15.131612,-5.234
841,-2.25703,-16.497017,-6.0170517
842,-5.5794644,-19.62324,-6.9993052
843,-7.1270223,-22.241585,-6.7405815
844,-9.424431,-23.515764,0.8985049
845,-10.339387,-21.460629,3.6990047
846,-10.258031,-17.864815,-1.6716857
847,-12.41875,-14.52563,-6.335895
848,-14.972489,-11.437693,-7.0519476
849,-9.4890375,-9.734601,-6.498607
850,-8.557332,-8.642277,-3.51386
851,-6.406184,-5.276473,-2.292324
852,-2.295315,-3.1348968,-1.2717853
853,1.1805589,-3.4462628,-3.0900314
854,1.8822541,-4.2777686,-2.577369
855,7.0639114,-5.587839,-4.0815573
856,8.44128,-6.2324057,-5.0901318
857,5.573781,-5.130511,-3.7007992
858,1.192523,-3.2189445,-2.2728825
859,-0.21355942,-1.1994023,-2.675475
860,-0.33349967,0.5371887,-3.4085758
861,1.1566306,1.5337993,-4.4578285
862,1.9782661,2.3626132,-4.77398
863,4.093521,3.016751,-5.3943195
864,3.908975,3.8288152,-8.316854
865,2.6751757,3.9388852,-9.25125
866,-0.73579293,3.0885358,-4.6468616
867,-3.871587,-0.40648076,3.7348971
868,-4.681258,-5.10419,13.213765
869,-9.541679,-12.918251,28.928328
870,-14.464613,-20.912073,24.396023
871,-12.799507,-21.029322,19.14288
872,-9.977772,-18.923637,13.240385
873,-7.349854,-17.304295,9.230313
874,-4.1757746,-13.085749,8.260024
875,-3.2823544,-7.1952176,6.1710896
876,-2.7361927,-4.8287163,4.640281
877,-2.9156544,-3.4103706,1.0519446
878,-3.2799616,-2.44038,-11.3880415
879,-9.438788,-5.1568317,-9.8835535
880,-19.567009,-12.681063,1.2891332
881,-26.901907,-26.242086,20.687746
882,-22.14677,-40.068714,11.580065
883,2.80708,-23.611776,-19.508682
884,9.358628,-6.8096743,-20.469103
885,2.6153553,-5.302794,-8.261818
886,0.7755736,-4.433302,-3.528217
887,-0.22313072,-3.1779675,-0.37806597
888,0.090628155,-2.2175484,-1.4703895
889,0.9840483,-2.2558336,-6.0436716
890,1.9878374,-2.5959134,-7.899904
891,2.169991,-3.3672996,-8.678469
892,-0.81266236,-6.977471,-6.7764735
893,-0.9705887,-10.053145,-3.188137
894,-1.090529,-13.881063,1.7682959
895,-1.5454643,-16.061224,0.6158527
896,-1.3420744,-17.608482,-2.1053848
897,0.61764735,-17.352152,-5.741578
898,2.2561326,-15.246767,-6.026623
899,2.984448,-12.824931,-5.7009
900,3.1830523,-11.389835,-5.466104
901,2.5507488,-10.024431,-4.496114
902,1.6884354,-8.076973,-3.6191442
903,0.025722843,-5.7676,-3.0586255
904,-1.5143577,-8.318947,2.5707889
905,-0.8964112,-9.823135,7.0094748
906,1.1327025,-9.193225,9.3308115
907,2.5339992,-7.9450684,10.130912
908,1.9615164,-6.201299,8.113763
909,1.2451651,-5.2166524,6.518348
910,0.6415756,-4.2056847,4.6235313
911,-3.9673,-6.8336024,3.112165
912,-8.758329,-10.017253,3.219842
913,-8.973982,-11.610274,0.2973082
914,-5.3473606,-11.701201,4.829613
915,-1.1575279,-12.841681,8.396415
916,-0.7070791,-15.069399,4.9926243
917,-1.8667008,-16.238293,3.1576285
918,-2.7625136,-14.846567,1.9573289
919,-1.6079768,-12.894323,-1.1973087
920,2.847758,-12.295519,-1.7988044
921,6.050551,-13.117155,-0.98913306
922,8.043473,-14.336298,1.332204
923,8.690433,-14.599808,2.3264217
924,7.346564,-14.226228,3.138486
925,4.5628138,-14.966507,5.215456
926,1.7243278,-15.739987,7.6082788
927,0.5626124,-16.207186,8.729615
928,-1.0450653,-16.513767,7.3064837
929,-0.9346963,-17.132011,4.3073797
930,2.6991038,-17.201405,-2.4741786
931,3.6167514,-15.591632,-7.1862445
932,2.6943183,-14.743676,-7.0112696
933,0.5024927,-13.821242,-5.7658052
934,-1.2556337,-14.365011,-4.764409
935,-3.4163525,-15.732809,-4.7189455
936,-5.7927246,-18.480667,-5.1236315
937,-8.485249,-22.617558,-4.80748
938,-8.233703,-23.434408,-2.8241289
939,-7.9678,-22.45724,-0.32063824
940,-11.7311125,-20.35634,-2.565405
941,-15.794125,-17.11287,-2.9126635
942,-16.836199,-12.925429,-3.8682969
943,-13.535002,-9.47827,-4.6037908
944,-6.497112,-8.742776,-3.5066817
945,-2.9566314,-6.888637,-5.006383
946,-1.0522437,-3.851248,-0.96520483
947,2.6895328,-3.3649068,-2.8118658
948,5.3847485,-3.1468608,-0.88354975
949,7.1620173,-2.8091738,-2.292324
950,8.726325,-4.404588,-5.0255256
951,7.0639114,-3.5733814,-4.6205406
952,2.80708,-1.8221345,-2.8671997
953,0.79710907,0.36251262,-2.3665016
954,0.47856453,2.0297117,-3.1139596
955,0.88354975,2.556731,-4.093521
956,1.218844,3.316153,-4.5655055
957,1.4703895,3.5365918,-4.388138
958,3.0059834,3.3185458,-7.545467
959,2.5148566,3.086143,-9.076276
960,1.0366904,2.1831515,-7.773084
961,-2.9183464,-0.9502497,-1.9375881
962,-5.3832526,-5.1209397,7.622935
963,-8.078169,-10.834103,22.302303
964,-12.545569,-18.904495,31.752756
965,-14.0189495,-22.617558,23.469103
966,-12.847663,-25.786852,18.004793
967,-11.414961,-25.259832,11.855539
968,-6.8300133,-18.18605,6.7794647
969,-5.6324053,-14.164015,5.299205
970,-3.4211383,-4.744668,4.5852466
971,-3.370889,-2.3204398,3.0690942
972,-3.5434713,-1.9875383,-0.75912297
973,-4.9806604,-3.091826,-8.611469
974,-7.8816586,-5.556732,-6.9394846
975,-14.4236355,-13.625031,-2.3258235
976,-17.444574,-24.34727,8.990732
977,-16.071991,-32.35784,2.1538396
978,-2.9303105,-19.321445,-13.991732
979,1.2762718,-12.113365,-14.537893
980,-1.8523438,-6.943971,-7.4832535
981,-2.4296124,-5.9712887,-3.1857443
982,-0.8006983,-4.7303114,-1.3866407
983,-0.17288144,-3.6020954,-3.202494
984,-0.046061836,-3.4510484,-4.54397
985,2.3374887,-4.2705903,-5.401498
986,3.0323045,-7.2433734,-7.3489566
987,1.0055838,-11.3683,-5.2698927
988,-0.7046863,-15.53899,-2.7329025
989,0.37088752,-17.381165,-2.2728825
990,2.617748,-17.01925,-4.0719857
991,3.892225,-15.795321,-6.762117
992,2.9626136,-14.135001,-5.2169514
993,3.650251,-11.425728,-4.2421756
994,3.9305103,-9.490233,-4.0767717
995,3.1399815,-8.515159,-3.3484561
996,2.8573294,-7.094719,-3.6577284
997,0.3924229,-4.785346,-2.7089744
998,-1.1886346,-8.069795,2.0365913
999,0.061914288,-9.914362,5.1050873
1000,1.4536397,-9.9909315,7.605886
1001,2.8142586,-8.352447,8.041978
1002,2.9075787,-6.9702926,6.2715883
1003,2.169991,-5.494519,1.5957136
1004,0.9984053,-5.432306,-0.8859426
1005,-4.147061,-6.10768,6.6502523
1006,-8.926126,-8.347661,9.512965
1007,-11.9204445,-10.755139,11.381461
1008,-6.777371,-12.182757,7.8813596
1009,-0.5706882,-13.787744,6.358029
1010,2.169991,-16.037296,2.7239294
1011,1.640579,-16.33909,3.0472596
1012,-1.8376877,-15.086148,2.5154548
1013,-2.824727,-13.098012,-1.0896316
1014,0.7755736,-13.145868,-3.0681968
1015,4.9342995,-13.926826,-1.8586249
1016,8.180163,-15.66581,-0.06669993
1017,9.040084,-15.627524,2.9108686
1018,7.1213393,-15.069399,3.6176488
1019,3.132803,-14.283656,4.64746
1020,-1.3875381,-14.523237,6.6502523
1021,-2.6596224,-14.4128685,9.060123
1022,-3.3182468,-14.690735,8.549854
1023,-2.2019951,-15.375979,4.714758
1024,2.0237298,-15.215361,-0.4019942
1025,3.7292142,-15.251553,-4.706981
1026,3.7220356,-14.95903,-5.6147585
1027,3.2910285,-14.374583,-6.0484576
1028,1.3890336,-14.353047,-4.8266225
1029,0.01375873,-14.626128,-4.3211384
1030,-1.8137596,-15.89582,-4.65404
1031,-3.9338005,-17.8361,-5.2025948
1032,-6.4444695,-20.912073,-5.432605
1033,-7.548757,-22.715664,-2.632404
1034,-8.547761,-21.982862,0.66161543
1035,-9.879665,-19.697416,0.23509483
1036,-13.192529,-16.430017,-2.4598217
1037,-14.361423,-12.364911,-4.7285166
1038,-11.668899,-9.123833,-4.124628
1039,-4.063312,-7.870891,-5.7658052
1040,-2.8151557,-6.297012,-6.74776
1041,-2.5492535,-3.1253254,0.71665037
1042,2.3518455,-2.481058,-2.8046873
1043,4.3522453,-4.241577,-0.018843478
1044,4.5508494,-4.3615174,-0.13130614
1045,9.006584,-5.899504,-4.364209
1046,8.005188,-5.398806,-4.8792644
1047,3.662215,-3.6188452,-4.2924247
1048,0.7492526,-1.8221345,-3.0490541
1049,-0.45074797,-0.07597212,-3.5353954
1050,-0.18484555,1.0642079,-4.0887356
1051,1.4560326,1.9483558,-4.831408
1052,2.984448,2.269293,-5.4086766
1053,4.388138,1.864308,-6.9418774
1054,3.9592242,2.286043,-7.643872
1055,1.5302101,2.678765,-5.899803
1056,-3.0667014,0.0077766734,0.031405795
1057,-5.668298,-5.722136,11.596815
1058,-11.877374,-13.380664,26.688646
1059,-15.71247,-20.464018,29.510382
1060,-13.530215,-22.524239,19.54996
1061,-9.254242,-21.355045,14.780465
1062,-7.301997,-20.380268,9.275777
1063,-4.499105,-16.686348,6.456135
1064,-2.800799,-11.097612,3.7731822
1065,-2.2331018,-6.392725,1.5933207
1066,-2.5875385,-2.751746,0.6735796
1067,-5.1006007,-1.0989038,2.9443684
1068,-5.759225,-1.0268201,-4.019344
1069,-9.285348,-3.7746778,-8.163414
1070,-12.301501,-7.84457,-9.957731
1071,-15.796517,-13.411771,-1.7386848
1072,-18.627825,-24.028425,13.894224
1073,-19.583757,-31.69174,0.48424748
1074,-2.935096,-18.547667,-12.396317
1075,2.5938199,-9.38495,-12.204891
1076,-0.84137625,-8.531908,-7.583752
1077,0.059521463,-6.864709,-2.819044
1078,0.9290134,-5.7077794,-2.9940193
1079,1.1159526,-4.680062,-3.8706896
1080,1.8367904,-3.757928,-4.4817567
1081,3.9472601,-4.955536,-6.6975107
1082,1.9016958,-10.163514,-3.05384
1083,-1.3683954,-14.417654,-3.6143587
1084,-1.0375878,-16.300806,-3.2072797
1085,0.28205398,-17.004892,-2.5821548
1086,3.973581,-15.55574,-5.5094743
1087,4.618148,-13.888242,-6.0747786
1088,4.759324,-11.641381,-3.9379878
1089,4.4192443,-9.780065,-3.3631122
1090,4.222734,-8.220542,-3.147459
1091,5.0491548,-5.5280185,-5.027919
1092,2.3231318,-3.8847475,-4.453043
1093,-0.7935198,-7.6193457,1.250848
1094,-0.06999006,-9.780065,4.601996
1095,1.8511474,-10.335797,8.478069
1096,3.528217,-8.970393,9.989436
1097,5.0012984,-6.3903317,6.515955
1098,4.2705903,-5.0081778,0.18005991
1099,0.22701904,-6.6948185,-2.4047868
1100,-6.2024956,-8.944072,7.0935225
1101,-11.5061865,-11.4496565,11.381461
1102,-12.684652,-11.833106,11.700006
1103,-9.108279,-11.897713,8.525927
1104,-4.235595,-12.899109,6.2790656
1105,-2.664408,-14.805889,2.1586251
1106,-3.354139,-16.794025,4.681258
1107,-6.5760746,-16.79642,1.1763715
1108,-3.4426737,-14.154144,-1.8634106
1109,1.6043876,-13.176975,-1.2382857
1110,6.6278195,-13.907683,-0.7280163
1111,10.410274,-15.212968,-0.006879365
1112,11.749357,-15.224933,0.7286145
1113,9.492926,-14.887245,2.525026
1114,6.8339014,-15.529419,3.789932
1115,3.501597,-16.15933,6.8539414
1116,0.4426722,-17.0025,10.150055
1117,-1.0351949,-17.421843,10.880763
1118,-0.084346995,-16.952251,6.832406
1119,3.621537,-15.993926,-1.2406785
1120,4.380959,-14.034503,-6.146563
1121,1.9591235,-13.095619,-7.543074
1122,0.72293156,-12.894323,-6.882057
1123,-1.5430715,-13.845171,-5.93091
1124,-3.7878382,-15.53899,-6.378966
1125,-5.0548377,-17.024036,-6.7740808
1126,-6.9786673,-19.275982,-6.3598237
1127,-7.2062845,-19.577776,-5.0805607
1128,-8.930911,-20.35634,-3.0972097
1129,-12.380465,-20.267508,2.2929223
1130,-17.480467,-17.321045,-0.8883354
1131,-18.960726,-12.170794,-4.9103713
1132,-15.381961,-8.385946,-5.7801623
1133,-7.2876406,-7.775178,-3.367898
1134,-3.045166,-6.253941,-2.7424738
1135,-0.5706882,-3.554239,0.34516466
1136,5.6913285,-3.8033917,-4.357031
1137,5.276772,-5.056034,-1.2837493
1138,9.217452,-4.505087,-4.1007
1139,8.616255,-5.3772707,-3.947559
1140,6.129514,-3.8201413,-2.9437702
1141,4.045665,-2.3012972,-2.6132615
1142,2.4502504,-0.33230326,-2.469393
1143,1.3938192,1.1123635,-2.5558336
1144,2.0141585,2.2381866,-2.8337002
1145,1.7434704,2.9422746,-3.1426735
1146,2.8908288,3.7663028,-3.025126
1147,3.786941,3.6370904,-4.5942197
1148,2.2417758,3.0143583,-6.1968126
1149,0.8258229,2.2094727,-7.0351977
1150,-1.8448663,-0.634098,-2.292324
1151,-4.9663033,-4.5508494,7.2562346
1152,-6.7343,-10.144372,20.105692
1153,-12.974483,-19.050756,30.715467
1154,-16.32593,-24.71367,24.458237
1155,-12.423535,-28.225437,19.353449
1156,-9.654441,-24.795027,8.322237
1157,-7.3522468,-18.152252,4.7434716
1158,-6.544968,-10.522737,2.8295128
1159,-5.5866427,-6.129514,3.071487
1160,-8.059027,-6.869495,1.5263218
1161,-8.054241,-8.759525,-2.6635108
1162,-8.020741,-10.90828,-10.757832
1163,-11.577971,-13.318151,-11.507682
1164,-13.843974,-16.494623,1.6124634
1165,-12.746865,-19.081863,6.0418773
1166,-9.501001,-16.128223,-9.095418
1167,-2.2187448,-8.9775715,-11.311172
1168,-0.32392836,-5.5591254,-10.750653
1169,-1.6749759,-5.6001024,-9.413962
1170,-1.8089739,-5.480162,-5.4373903
1171,-1.2317054,-5.0682974,-4.7691946
1172,-0.73100734,-5.302794,-6.0290155
1173,1.4799608,-5.7676,-7.792227
1174,3.0729825,-7.1473613,-7.7156568
1175,7.0806613,-9.815957,-6.894021
1176,1.6836498,-16.089937,-6.0843496
1177,-1.576571,-19.685453,-3.0083764
1178,4.1222353,-17.721245,-5.480461
1179,5.4493546,-15.268302,-7.147959
1180,4.153342,-13.19851,-5.13081
1181,4.599005,-11.263016,-3.9547377
1182,4.5412784,-9.662816,-3.6143587
1183,5.128417,-8.136793,-4.1703906
1184,4.694718,-5.0659046,-6.7740808
1185,1.4991034,-9.06132,1.6914265
1186,1.6764714,-11.876177,7.5269227
1187,3.1208389,-12.221043,13.968401
1188,3.3891342,-10.791032,17.475382
1189,2.047658,-7.995318,14.608182
1190,1.5230316,-6.476773,8.027621
1191,1.178166,-6.4241304,1.5813566
1192,-3.5410783,-10.005289,-0.17706887
1193,-6.7845497,-11.4496565,0.85064846
1194,-9.436396,-11.298908,5.620142
1195,-8.200203,-9.753743,5.1529436
1196,-6.6000032,-9.55484,5.4403815
1197,-4.700401,-11.92164,5.0548377
1198,-3.0188448,-12.951751,3.0257242
1199,-1.7084754,-13.960325,2.1705892
1200,-1.4712868,-13.351651,-0.79501534
1201,0.24137598,-12.659527,-1.1733804
1202,2.6464617,-13.085749,-0.44536412
1203,5.6383877,-14.223835,-0.78065836
1204,7.3657064,-14.951852,-0.7686943
1205,7.899904,-14.796318,0.9873384
1206,5.8037915,-13.960325,3.9840498
1207,2.768795,-13.900505,6.520741
1208,1.2954143,-14.223835,7.9055867
1209,0.7636095,-14.774782,7.457531
1210,0.13130614,-14.645271,5.9841504
1211,1.6187445,-14.729319,4.4871407
1212,5.3246284,-15.021543,0.08165507
1213,5.751149,-15.328123,-3.9116669
1214,4.5747776,-13.910076,-7.8424764
1215,1.6908283,-13.433307,-7.2580295
1216,-0.03888337,-13.6968155,-5.5573306
1217,-1.1862419,-14.154144,-5.4349976
1218,-2.841477,-15.421443,-5.631508
1219,-5.2896338,-18.04936,-3.458825
1220,-8.446963,-22.869102,-0.48364928
1221,-9.841082,-24.795027,0.6999006
1222,-11.120344,-22.78296,-1.2382857
1223,-8.928518,-17.745173,-2.5869403
1224,-7.392925,-14.008182,-3.9667017
1225,-11.247463,-11.394622,-7.5622168
1226,-17.502003,-10.345368,-11.5316105
1227,-10.547861,-9.370592,-7.025626
1228,-7.218249,-5.0081778,-0.06909275
1229,-3.4549367,-2.7397819,-0.07866404
1230,0.7085746,-3.2739797,-2.1364915
1231,2.82383,-3.6164522,-1.4177474
1232,5.5450673,-3.7268212,-2.836093
1233,7.9334035,-4.6489553,-4.65404
1234,5.808577,-4.0477586,-4.2014976
1235,1.3866407,-2.631806,-2.675475
1236,0.4211368,-0.5407779,-2.7975087
1237,0.2533401,0.5733801,-3.2623146
1238,-0.010169496,1.442872,-3.5880375
1239,1.0127622,2.4562325,-4.316353
1240,2.1314068,3.2297122,-4.5535417
1241,3.2213376,2.678765,-6.802795
1242,4.1222353,2.9159534,-8.68804
1243,2.8046873,2.5112674,-7.3899336
1244,-0.40289152,0.51086766,-1.5257236
1245,-4.022634,-5.539983,11.493923
1246,-10.785049,-14.475381,28.410881
1247,-16.471891,-23.477478,31.80779
1248,-14.239388,-26.970102,21.392134
1249,-9.457931,-27.279375,14.687145
1250,-5.922236,-23.0704,7.7569327
1251,-3.3086755,-16.015461,5.131408
1252,-2.556432,-8.560922,3.4713874
1253,-1.6103697,-2.658426,1.9812572
1254,-2.079662,-0.8353942,2.3144577
1255,-2.6377878,0.19232312,1.238884
1256,-3.9915273,-0.77796644,-6.4555364
1257,-8.207381,-4.112365,-10.832009
1258,-12.397214,-9.693923,-8.482257
1259,-18.771694,-17.917755,-0.15314065
1260,-25.275385,-32.230724,11.410174
1261,-13.803296,-29.466413,-3.9858444
1262,-1.5669997,-13.790136,-13.661222
1263,-0.39571303,-7.7847495,-9.974482
1264,-2.9398818,-6.68764,-5.6578293
1265,-0.65682983,-5.1592245,-3.1809585
1266,-0.3909274,-4.2610188,-3.894917
1267,1.4799608,-3.0535407,-4.599005
1268,5.4110694,-2.3132613,-7.6630144
1269,2.2752752,-6.6203423,-5.676972
1270,-0.9921241,-11.248659,-3.4133615
1271,-2.2259233,-14.748462,-3.1402807
1272,-0.89401835,-16.413267,-2.6778677
1273,4.479065,-15.536597,-5.322535
1274,6.1824555,-14.425131,-6.71426
1275,5.8037915,-13.445271,-6.4148583
1276,5.849255,-11.100005,-5.811269
1277,6.6852474,-9.109476,-5.027919
1278,5.660222,-8.283054,-4.0887356
1279,4.699504,-6.2324057,-4.8936214
1280,-0.21834506,-6.5485573,-2.265704
1281,-1.7874385,-9.607781,1.7467605
1282,-0.1896312,-11.667703,4.575675
1283,2.00698,-11.428121,6.942476
1284,3.2982068,-9.813564,7.3256264
1285,2.1649063,-7.530811,4.93729
1286,0.15523437,-6.5605216,4.1494536
1287,-5.7664037,-7.408478,11.862718
1288,-10.540683,-9.135797,12.840185
1289,-11.386247,-9.880862,7.3713894
1290,-8.339286,-11.011471,2.105983
1291,-3.5697923,-13.306188,4.8918266
1292,-0.2856432,-15.335301,4.139882
1293,0.24616162,-15.287445,2.7454648
1294,-1.5960127,-14.520844,1.9070797
1295,-2.1421745,-12.891931,-0.37088752
1296,0.87158567,-11.579168,-1.8155541
1297,4.002295,-12.590136,-0.4621139
1298,6.5608206,-14.784354,0.7286145
1299,7.962117,-16.274185,1.0495518
1300,7.945368,-15.462121,1.998306
1301,5.554639,-13.416556,2.8558338
1302,2.277668,-12.6523485,6.70768
1303,0.14566308,-13.176975,9.493823
1304,-0.7286145,-13.390236,10.329815
1305,-0.73579293,-13.910076,7.7832537
1306,1.1829517,-15.469299,3.3517463
1307,4.502993,-16.46591,-1.5711871
1308,5.753542,-16.200008,-5.3847485
1309,4.855336,-15.126826,-7.097411
1310,1.5421742,-14.872889,-5.835197
1311,-0.48903313,-15.411872,-5.092525
1312,-1.7587247,-16.353447,-5.2603216
1313,-3.0475588,-17.871992,-5.5262237
1314,-6.27428,-21.611376,-6.2494545
1315,-8.003992,-24.574587,-1.6525432
1316,-9.2590275,-24.09333,2.5875385
1317,-9.652048,-20.780169,0.5632106
1318,-11.211271,-16.705492,-3.801298
1319,-13.98545,-13.356736,-5.835197
1320,-13.839189,-11.066505,-5.2483573
1321,-3.6176488,-9.300901,-9.62483
1322,-5.035695,-6.826424,-4.34746
1323,-4.0704904,-4.095615,-0.18903299
1324,0.39720857,-3.7244284,-2.117349
1325,3.2237303,-4.356732,-2.0934207
1326,6.294918,-4.831109,-2.1125634
1327,8.589635,-6.2252274,-5.4756756
1328,6.527321,-4.8622155,-4.570291
1329,3.5497525,-3.4007993,-3.6696925
1330,0.42592242,-0.81625164,-2.838486
1331,-0.4124628,0.927817,-3.676871
1332,-0.7815557,1.6848463,-3.9547377
1333,-0.11784652,2.798705,-4.2134614
1334,1.2690933,3.6849468,-3.60718
1335,3.336492,3.2706895,-5.0015974
1336,3.8970108,2.9760733,-9.004491
1337,0.948156,2.7173493,-9.588938
1338,-2.0676978,1.0881361,-5.22413
1339,-3.1337004,-2.1649063,2.4508486
1340,-4.2837505,-6.469594,12.660424
1341,-9.812367,-13.600804,29.927332
1342,-14.64886,-20.94318,27.165417
1343,-14.569897,-25.235905,20.603998
1344,-12.507284,-25.952255,15.511173
1345,-8.085348,-23.156542,8.851649
1346,-5.519644,-15.165112,5.9147587
1347,-3.9816568,-6.902994,1.6627127
1348,-4.765007,-3.2356944,-1.5687944
1349,-6.9185476,-2.265405,1.4566308
1350,-6.0729837,-3.2763724,-3.1953156
1351,-7.5583286,-5.6742797,-5.200202
1352,-10.667502,-10.189836,-7.0543404
1353,-14.507684,-15.620346,-2.2704897
1354,-16.074385,-23.70031,8.949755
1355,-9.826724,-23.889643,-4.6707897
1356,-0.7645068,-13.610375,-11.522039
1357,0.44506502,-7.7440715,-10.070493
1358,-1.605584,-6.8336024,-6.647261
1359,-1.8113668,-6.0430737,-3.6000016
1360,-1.4593227,-5.389235,-2.7113671
1361,0.14327025,-4.3998027,-3.2359936
1362,1.4727824,-4.706383,-4.110271
1363,2.2728825,-6.8982086,-5.044668
1364,2.4478576,-10.510773,-5.562116
1365,-0.50817573,-15.332909,-4.4554358
1366,-1.1120644,-17.26601,-1.8131614
1367,3.312564,-15.469299,-3.6047873
1368,5.509175,-13.7686,-5.8423758
1369,5.1403813,-11.794821,-4.6899323
1370,4.2777686,-10.369297,-3.9571304
1371,3.9664025,-8.8340025,-3.3822548
1372,4.543671,-7.640881,-2.8959136
1373,3.690929,-4.867001,-6.8171515
1374,0.08344969,-6.517451,-1.2813566
1375,-0.73818576,-9.312865,2.2304099
1376,0.93619186,-10.7431755,5.5579286
1377,2.9820552,-10.5682,8.372486
1378,4.138985,-8.886644,8.906684
1379,4.555635,-6.8718877,5.5316076
1380,1.8774685,-6.2515483,0.5488537
1381,-4.3651066,-8.143971,6.8300133
1382,-10.171889,-9.449555,11.850753
1383,-12.287145,-10.101002,8.135298
1384,-9.103494,-10.376475,-0.09302098
1385,-4.453641,-11.193325,0.9299107
1386,-0.69272214,-13.744673,8.169097
1387,0.62721866,-15.800107,4.5972104
1388,-0.37417763,-16.477875,3.1576285
1389,-1.6319051,-15.366408,1.6555341
1390,-2.2307088,-13.60559,-1.9758734
1391,1.6501503,-12.690634,-1.4273187
1392,4.512564,-14.3004055,-0.6056832
1393,6.9678993,-16.34627,0.3260221
1394,7.8113694,-16.87568,2.1538396
1395,6.5081787,-16.063616,3.0352955
1396,4.6205406,-14.676377,3.289234
1397,3.1208389,-13.653745,5.133801
1398,0.7923234,-13.919647,8.650353
1399,0.5697909,-15.057435,9.428918
1400,2.9243283,-16.336697,5.0333023
1401,5.79422,-15.941283,-2.8265216
1402,4.8673005,-15.318551,-7.313064
1403,2.6201408,-13.873885,-6.894021
1404,1.0917253,-13.246367,-5.2962136
1405,-0.55393845,-13.842778,-3.4205399
1406,-2.3383858,-14.762818,-4.0480576
1407,-4.223631,-16.2694,-4.69741
1408,-6.140282,-18.00629,-4.776373
1409,-8.226524,-20.150259,-3.3631122
1410,-8.528319,-20.672493,-2.079064
1411,-8.525927,-20.088045,-1.7195421
1412,-10.794621,-18.602701,-1.8107685
1413,-14.363815,-15.859927,-3.691228
1414,-14.057235,-12.33859,-2.3928227
1415,-11.819945,-9.646067,-1.5496517
1416,-5.4311094,-7.84457,-5.332106
1417,-2.3599212,-7.5547395,-9.437891
1418,-0.49860442,-4.6633124,-0.4956134
1419,1.7482561,-3.8321054,-0.77587277
1420,4.699504,-4.7709894,-0.7280163
1421,6.1654067,-4.7470613,-3.05384
1422,7.516454,-5.7580285,-3.976273
1423,6.1414785,-5.005785,-4.536792
1424,3.1782668,-3.065505,-2.9341989
1425,1.2379866,-1.0100702,-2.5220351
1426,0.34456646,0.51565325,-2.8600214
1427,-0.24975087,1.2367902,-3.0203404
1428,0.25573292,2.0440688,-3.7677984
1429,1.5613167,2.7723842,-3.4396825
1430,2.766402,2.7149563,-4.7165527
1431,3.106482,2.7628129,-6.6975107
1432,1.3746766,2.5519454,-6.489036
1433,-1.4473586,0.56111693,-2.766402
1434,-3.382853,-2.696711,5.306383
1435,-4.7267222,-7.815856,16.74258
1436,-10.063913,-15.22254,28.892437
1437,-15.576079,-21.525234,24.523142
1438,-11.67847,-23.4368,19.677078
1439,-9.544072,-23.856142,10.150055
1440,-6.3460646,-20.81367,7.2490563
1441,-3.6511483,-13.917254,4.6836514
1442,-1.9002002,-6.771389,2.038984
1443,-1.4330016,-2.8546374,-1.2020943
1444,-2.5181468,0.017347964,2.2232313
1445,-3.3493536,0.76719874,-4.857729
1446,-6.113662,-1.7694924,-6.501
1447,-8.679366,-6.136693,-7.2963142
1448,-12.768401,-12.348162,-3.446861
1449,-17.83969,-23.216362,10.130912
1450,-20.944376,-34.25505,3.8545382
1451,-7.1389866,-23.175684,-10.676476
1452,-0.6879365,-11.375479,-10.983056
1453,-0.6831509,-7.219445,-8.937193
1454,-1.6175481,-6.0957155,-5.8280187
1455,-1.9408783,-5.235795,-2.1604197
1456,-1.5215361,-4.2705903,-2.4119651
1457,0.17198412,-3.3816566,-2.9126635
1458,1.5684953,-3.6284165,-3.1019955
1459,1.625923,-6.282655,-3.652943
1460,-1.5406786,-10.33819,-1.2116655
1461,-3.3493536,-13.816457,-1.3339987
1462,-1.2963116,-14.911174,-1.9902302
1463,4.069593,-14.908781,-5.0566325
1464,6.855437,-14.09193,-8.194819
1465,7.1356964,-13.23201,-7.2939215
1466,8.496315,-11.30848,-5.2770715
1467,7.2987075,-9.435199,-5.1499524
1468,6.7525454,-7.676773,-4.9606204
1469,2.996412,-4.684848,-7.8424764
1470,0.19830517,-7.094719,-0.08344969
1471,-0.5419743,-9.717851,3.2461631
1472,1.1709876,-10.27837,6.6741805
1473,3.7627137,-9.6173525,8.985947
1474,5.032405,-8.222935,8.58814
1475,4.57747,-6.3329043,3.7444685
1476,1.4536397,-7.1210403,0.14895321
1477,-5.0742793,-9.243474,7.004689
1478,-10.864013,-11.219945,12.408879
1479,-12.782758,-12.384053,11.041081
1480,-8.1020975,-11.284552,4.5302114
1481,-2.5899315,-10.999507,3.2772696
1482,-1.1216356,-13.071392,4.9495535
1483,-1.0666007,-14.829818,3.6056845
1484,-2.1661026,-15.728024,2.1275184
1485,-1.6366907,-15.603597,-0.5051847
1486,1.8535402,-14.362618,0.2757728
1487,4.9462633,-14.0392885,0.048155557
1488,6.565606,-15.138791,-0.6798607
1489,7.423134,-15.622739,0.85064846
1490,6.4627147,-14.719748,2.201696
1491,4.057629,-13.747066,3.3179476
1492,1.4344971,-13.701602,4.494319
1493,0.020937199,-13.680066,7.7090764
1494,-1.7371893,-15.320944,9.932009
1495,0.8787641,-16.221542,7.41446
1496,4.0405803,-16.755741,2.7885356
1497,5.643173,-16.604992,-2.251347
1498,5.169095,-14.798711,-5.581259
1499,2.617748,-13.864313,-6.079564
1500,0.78035927,-13.648959,-4.9920263
1501,-0.94426763,-14.405689,-4.196712
1502,-2.6306095,-15.8359995,-4.781159
1503,-3.9891346,-17.414663,-4.980062
1504,-5.476573,-19.18954,-5.0709896
1505,-6.8252273,-19.611275,-3.4564323
1506,-7.9965143,-18.631414,-0.6945168
1507,-8.513962,-17.244474,0.3499503
1508,-9.982557,-15.215361,-2.2971098
1509,-13.290634,-12.860824,-4.599005
1510,-14.078771,-9.9909315,-2.4646072
1511,-7.785946,-8.072187,-6.937092
1512,-6.753443,-8.326125,-8.091629
1513,-3.751946,-4.584349,-0.27996024
1514,-1.5598212,-3.822534,0.53210396
1515,3.743571,-3.839284,-2.141277
1516,6.4289165,-4.4189453,-2.9605198
1517,8.975478,-6.160621,-4.6229334
1518,6.8602223,-5.4203415,-4.4024944
1519,3.5688949,-3.772285,-2.7329025
1520,0.811466,-2.2055843,-2.0934207
1521,-0.18484555,-0.5383851,-2.4335005
1522,-0.78394854,0.52283174,-2.8337002
1523,-0.024526432,1.3396816,-3.2934213
1524,1.0992029,2.178366,-2.5965116
1525,2.9796624,1.794916,-4.148556
1526,4.179663,1.6441683,-6.417251
1527,3.1495528,1.6800606,-6.383752
1528,-0.50099725,1.1243275,-2.5435705
1529,-2.9829526,-2.1385853,5.526822
1530,-8.806484,-11.227124,23.610281
1531,-15.326926,-19.177576,30.262627
1532,-12.888341,-21.935005,23.469103
1533,-8.087741,-21.489342,15.611672
1534,-5.864808,-19.953749,8.58814
1535,-3.4621153,-15.582061,5.9937215
1536,-2.5492535,-9.492626,4.182953
1537,-2.3503501,-4.5003014,4.5972104
1538,-4.185346,-2.7038896,2.4125633
1539,-3.2871401,-0.701097,-5.45414
1540,-5.83101,-0.73459655,-10.647761
1541,-10.121341,-3.5183465,-10.494322
1542,-17.228922,-10.323833,-2.891128
1543,-26.748766,-23.142183,16.184454
1544,-26.039593,-38.04947,10.1955185
1545,-1.3516457,-23.978176,-19.479969
1546,6.946364,-9.669994,-17.3025
1547,-0.33349967,-8.804989,-8.544471
1548,-1.3301103,-6.9077797,-3.85394
1549,0.21984059,-5.211867,-1.721935
1550,1.041476,-3.6858442,-3.013162
1551,2.0021944,-2.996113,-4.5655055
1552,5.212166,-3.4585261,-6.8243303
1553,3.0442686,-8.64467,-5.751149
1554,0.020937199,-13.076178,-3.3607194
1555,-0.48185465,-17.395521,-2.8456643
1556,1.7267207,-17.036,-2.3808584
1557,4.939085,-15.361622,-5.7080784
1558,4.5508494,-13.131512,-6.180063
1559,4.002295,-11.23191,-4.0528436
1560,4.1605206,-9.58834,-3.4372897
1561,3.892225,-8.347661,-3.7701912
1562,3.7531424,-7.7464643,-3.7917266
1563,1.9878374,-5.7819567,-5.159524
1564,-0.6735796,-6.308976,-2.1747768
1565,-1.3755739,-9.535697,1.3417753
1566,0.5479564,-11.215159,5.0859447
1567,2.3638096,-11.016256,8.322237
1568,3.9951165,-9.399306,9.21805
1569,4.2801614,-6.8407807,5.3327045
1570,2.3111675,-6.4480586,1.4207385
1571,-4.7267222,-7.463513,8.899506
1572,-10.682158,-9.135797,11.635399
1573,-12.696616,-10.218549,8.0252285
1574,-12.8931265,-10.608878,-0.16031912
1575,-7.8481593,-11.746665,4.2092743
1576,-0.4459623,-13.81885,6.726823
1577,0.054735817,-16.861324,3.4522448
1578,0.19830517,-16.38216,2.1442683
1579,-0.18484555,-14.820246,1.969293
1580,1.2355938,-12.822538,-0.72323066
1581,5.061119,-12.396018,-1.8658035
1582,7.8831544,-14.056039,-2.778366
1583,10.053444,-15.852749,-1.2598212
1584,8.692825,-15.639489,0.9586246
1585,5.0659046,-14.477774,3.1743784
1586,1.1566306,-14.72214,6.5497537
1587,-0.5946164,-15.598811,9.002696
1588,-1.9600209,-16.650455,10.746466
1589,-2.1780667,-16.808382,10.313066
1590,-0.0077766734,-16.331911,6.465706
1591,3.3699915,-15.270695,0.005084748
1592,4.953442,-14.55913,-5.094918
1593,5.243273,-13.770993,-6.3981085
1594,2.4717858,-13.440485,-6.041279
1595,1.0031909,-13.910076,-4.781159
1596,-0.82701933,-15.074184,-4.9175496
1597,-3.0236306,-16.39891,-6.297311
1598,-5.069494,-19.084255,-6.8389864
1599,-6.003592,-20.253149,-6.6257257
1600,-7.1365933,-20.792133,-5.4589257
1601,-8.446963,-20.190937,1.6148561
1602,-11.527722,-18.130716,3.7253258
1603,-14.795121,-14.988043,-2.3856442
1604,-15.027524,-11.821142,-4.5487556
1605,-7.2613196,-8.726026,-1.0776675
1606,-2.923132,-8.438588,-10.24517
1607,-3.0619156,-4.4955153,-1.7003996
1608,-0.88683987,-3.429513,-0.81655073
1609,2.9796624,-4.2056847,-1.3531412
1610,6.227919,-3.7962132,-2.7927232
1611,7.9310107,-5.178367,-3.9188452
1612,7.2532434,-4.282554,-4.613362
1613,3.9161534,-2.7206392,-2.8719854
1614,2.0620148,-0.57188463,-2.2609184
1615,0.6750751,1.0666007,-2.3521447
1616,0.02841477,1.9722841,-3.1283164
1617,1.451247,2.2621148,-3.1450663
1618,1.8176479,2.4705894,-2.795116
1619,3.3173494,2.868097,-3.5521452
1620,4.7880383,2.6309085,-7.4473615
1621,3.1399815,2.0201404,-9.627223
1622,-0.12263216,0.68823564,-5.9261246
1623,-4.935197,-3.2237303,3.8042889
1624,-6.7223363,-9.039784,18.107985
1625,-13.192529,-17.996717,32.76821
1626,-16.955841,-23.982962,26.003403
1627,-12.557833,-25.243082,20.53939
1628,-9.697512,-24.608387,8.889935
1629,-7.3307114,-21.137299,6.2117677
1630,-4.88734,-11.612667,1.6794624
1631,-3.1097722,-4.6704907,-1.4249259
1632,-5.7616177,-1.992324,-0.37328035
1633,-6.75105,-1.244866,-1.0728818
1634,-8.2456665,-3.6427734,-7.4162545
1635,-11.379068,-8.122437,-9.653543
1636,-17.200207,-14.997614,-3.4253256
1637,-19.377676,-21.800709,8.95484
1638,-16.680367,-29.01118,7.893623
1639,-2.0222342,-20.114367,-6.812366
1640,3.5497525,-10.668699,-11.689836
1641,2.9004002,-5.9617176,-11.169995
1642,0.9290134,-4.922036,-6.5512495
1643,-0.5132605,-4.625027,-2.998805
1644,-1.4042878,-4.3495536,-1.8634106
1645,-0.048454657,-3.8751762,-2.7352953
1646,0.2844468,-5.4299126,-3.4540396
1647,0.23419751,-8.802596,-2.4215364
1648,1.0941181,-11.548061,-3.4444683
1649,2.5674987,-14.32912,-5.751149
1650,3.0011978,-16.042082,-5.0685964
1651,6.920043,-14.877674,-7.9097743
1652,6.203991,-13.227224,-6.858129
1653,5.2983074,-10.893924,-4.610969
1654,5.4613185,-9.392128,-4.060022
1655,5.3943195,-7.92114,-3.8084764
1656,5.22413,-7.4709907,-3.9140596
1657,1.8774685,-5.769993,-3.8587255
1658,-0.20877378,-6.0981083,-2.225026
1659,-0.8365906,-9.744172,1.6818552
1660,1.1566306,-11.46162,5.198407
1661,3.839583,-10.980364,8.319844
1662,6.0098734,-8.702098,7.9151583
1663,4.9486566,-6.6011996,1.509572
1664,-0.1274178,-8.026724,0.58953166
1665,-9.539287,-9.3200445,15.319448
1666,-12.30868,-11.224731,12.260524
1667,-11.467603,-12.367304,-0.035593238
1668,-11.105988,-14.286049,0.51056856
1669,-2.4918256,-14.5615225,10.293923
1670,-1.265205,-17.237297,6.9113693
1671,-1.2460624,-16.940287,2.3886352
1672,-1.4808581,-14.988043,1.1715858
1673,-0.5132605,-12.896716,-1.6166508
1674,3.1639097,-12.283256,-2.9006991
1675,5.7487564,-13.533805,-1.911267
1676,9.004191,-15.6466675,-0.25124636
1677,9.631709,-16.581064,1.5574285
1678,7.681858,-15.833607,3.0690942
1679,4.5006003,-15.134005,4.549354
1680,-0.5204389,-14.58545,8.8085785
1681,-0.13220344,-14.717355,9.565608
1682,1.3842479,-15.570097,8.315059
1683,4.098307,-15.481263,5.4427743
1684,5.10419,-15.136398,0.47946185
1685,5.53071,-14.096716,-3.3846476
1686,4.51735,-12.626028,-5.4780684
1687,2.1891336,-12.41516,-4.845765
1688,0.200698,-13.301402,-4.3929234
1689,-1.7395821,-14.84896,-4.692325
1690,-3.5913277,-16.61935,-5.593223
1691,-5.6850476,-18.82314,-6.431608
1692,-6.7821565,-19.659132,-6.0170517
1693,-7.143772,-19.405193,-5.9500527
1694,-8.035098,-19.63999,-4.153342
1695,-11.647364,-18.679272,2.623431
1696,-14.929119,-15.66581,3.3852458
1697,-15.192629,-12.3912325,-3.2407792
1698,-9.606286,-9.349057,-6.323931
1699,-4.3890347,-8.642277,-7.179066
1700,-1.6534405,-5.901897,-1.0513464
1701,-0.16091733,-5.0009995,-0.97956175
1702,4.8382874,-4.5891347,0.3909274
1703,7.4446692,-5.4179487,-1.070489
1704,9.186345,-5.9114685,-2.6970103
1705,7.9357963,-5.722136,-4.5798626
1706,5.549853,-4.0238304,-2.7640092
1707,2.4622145,-1.7048861,-1.9447666
1708,0.7683952,0.750449,-2.6635108
1709,0.51445687,1.9531415,-3.3149567
1710,0.68225354,2.9039893,-4.110271
1711,0.9625129,3.8407795,-3.5401812
1712,2.8022945,3.8312082,-3.8276188
1713,5.1619167,3.086143,-7.502396
1714,2.7855446,2.2908285,-8.7984085
1715,-2.0820549,0.74566334,-4.1847477
1716,-5.38086,-2.5839493,3.2964122
1717,-7.1581287,-6.033502,11.0913315
1718,-10.322637,-11.900105,25.811676
1719,-15.068202,-19.927427,24.369701
1720,-11.858231,-21.494127,20.718853
1721,-10.020843,-21.532413,11.422139
1722,-7.385746,-18.983757,7.7904325
1723,-5.668298,-13.509876,5.581857
1724,-5.1843495,-8.556135,3.7301114
1725,-5.272884,-4.653741,0.6759724
1726,-5.9413786,-3.8177485,1.1835499
1727,-6.2623158,-3.8201413,-10.04148
1728,-11.09163,-7.02772,-9.430713
1729,-14.636896,-9.787243,-5.8375897
1730,-19.444675,-19.275982,12.583855
1731,-16.831114,-30.014969,10.701002
1732,-3.6248271,-24.450161,-14.502001
1733,4.014259,-11.92164,-17.374285
1734,4.5966125,-7.312765,-12.446566
1735,0.5913263,-6.3951178,-7.2125654
1736,-1.183849,-5.7676,-2.3569303
1737,-1.0737791,-5.015356,-2.0455642
1738,-1.2723835,-4.5795636,-3.3293135
1739,-0.2425724,-4.9531426,-3.825226
1740,0.87158567,-6.7426753,-4.2254257
1741,2.7975087,-10.712069,-5.6243296
1742,0.55752766,-13.445271,-4.898407
1743,-0.06999006,-15.931712,-3.475575
1744,3.4824543,-15.459728,-4.987241
1745,5.135596,-13.790136,-6.472286
1746,4.9055853,-11.536098,-5.027919
1747,5.073083,-10.589736,-4.5822554
1748,5.1260242,-8.378768,-3.8898323
1749,5.540282,-7.3079796,-3.4420755
1750,4.4264226,-6.9173512,-3.621537
1751,0.7923234,-4.8095737,-7.832905
1752,-1.3683954,-8.678169,0.66400826
1753,-0.35503507,-10.436595,2.7622147
1754,1.3313067,-10.932208,4.968696
1755,3.7387853,-10.197014,7.699505
1756,4.843073,-8.450552,8.4349985
1757,4.0310087,-6.666105,5.555536
1758,-0.762114,-7.516454,8.911469
1759,-9.798011,-9.58834,15.187843
1760,-11.177772,-11.440085,6.901798
1761,-8.01117,-12.350554,-1.8538394
1762,-4.5352964,-12.827324,-2.1675982
1763,-0.5515456,-14.338691,8.252846
1764,-0.23748764,-16.12583,4.6283174
1765,-2.1708884,-16.564016,3.3469608
1766,-3.8356948,-15.720845,1.8281165
1767,-2.7792635,-12.803097,-1.6884354
1768,2.265704,-11.924033,-1.3914263
1769,5.2193446,-12.810275,-0.7328019
1770,8.175378,-14.49213,-1.0920244
1771,10.606785,-15.409479,-1.0920244
1772,10.115658,-14.779568,-0.17228323
1773,7.895118,-14.094323,0.58235323
1774,3.8300118,-14.127823,3.2844481
1775,-0.5395815,-15.253945,8.5067835
1776,-1.9839491,-15.833607,10.389636
1777,-2.7433712,-16.40609,10.919048
1778,-1.6223338,-16.750956,8.964411
1779,0.1480559,-16.890038,6.209375
1780,5.387141,-14.42244,-3.717549
1781,5.1810594,-13.392629,-5.7224355
1782,2.4502504,-12.556636,-5.736792
1783,0.6678966,-13.160226,-5.494818
1784,-1.076172,-14.7508545,-5.4876394
1785,-2.4798615,-16.336697,-6.129813
1786,-3.9864426,-18.164215,-7.0112696
1787,-4.662116,-18.578772,-6.501
1788,-5.639584,-18.154644,-5.200202
1789,-6.0083776,-17.733208,-3.269493
1790,-11.46521,-18.013468,5.2776694
1791,-13.949558,-15.41905,-2.2899313
1792,-15.556936,-11.229517,-10.108778
1793,-7.0025954,-10.204192,-5.200202
1794,-7.2708907,-8.333304,-2.9030921
1795,-2.9949167,-4.7542396,-0.46929234
1796,0.50009996,-4.8502517,-1.8251255
1797,1.5230316,-5.468198,-1.5568303
1798,6.649355,-4.85743,-1.8658035
1799,7.5287175,-5.7652073,-5.027919
1800,5.4876394,-4.8239303,-3.3293135
1801,3.7196429,-3.01047,-2.728117
1802,1.6884354,-0.811466,-2.6659036
1803,0.581755,0.5709873,-3.6000016
1804,0.6726823,1.1147562,-3.9451663
1805,0.51445687,1.8020946,-4.618148
1806,1.1638091,2.5734808,-4.1632123
1807,2.5339992,2.707778,-4.3331027
1808,2.198705,2.2501507,-4.7165527
1809,0.7157531,2.1735802,-6.8748784
1810,-2.9877381,1.6680965,-5.8040905
1811,-4.262215,-0.35862428,-0.42622152
1812,-4.269394,-4.5003014,7.3522468
1813,-7.0002027,-11.040185,20.041086
1814,-13.115958,-20.847168,26.928228
1815,-14.181961,-24.842882,24.1708
1816,-10.849656,-24.62035,17.288742
1817,-7.867302,-22.016361,11.709577
1818,-4.6788654,-16.343876,7.852646
1819,-3.2368908,-8.213364,4.125226
1820,-1.3372887,-4.625027,0.1585245
1821,-4.032205,-3.7292142,-1.2789637
1822,-7.3139615,-4.9722853,1.0854442
1823,-7.943872,-7.6217384,-4.2445683
1824,-10.535897,-11.857035,-6.9418774
1825,-12.799507,-14.832211,-3.3846476
1826,-14.541183,-21.21626,5.9530435
1827,-12.1504545,-24.48366,6.61436
1828,-3.0260234,-16.590635,-9.040383
1829,0.6942177,-10.134501,-11.392827
1830,-0.54675996,-6.500701,-9.133703
1831,-2.0294127,-5.5854464,-4.0552363
1832,-2.1637099,-4.981857,-3.077768
1833,-1.1312069,-4.093222,-2.8046873
1834,-0.13220344,-3.757928,-3.2120652
1835,2.5507488,-3.621238,-5.94766
1836,3.0299118,-7.3678,-6.465108
1837,0.79710907,-11.560025,-3.7677984
1838,-1.1120644,-15.519848,-1.911267
1839,0.6367899,-16.029818,-1.6094723
1840,3.1830523,-15.804893,-3.8706896
1841,4.666004,-14.223835,-5.480461
1842,4.3378882,-12.616456,-4.9175496
1843,5.0276194,-10.24487,-4.3618164
1844,4.9989057,-9.015857,-4.4458647
1845,4.127021,-8.519944,-4.6229334
1846,2.1361923,-6.311369,-7.746763
1847,-0.62811595,-7.683952,-1.262214
1848,-0.50817573,-10.398011,3.3852458
1849,1.8487546,-10.874781,7.6181493
1850,3.1399815,-10.225728,10.17159
1851,3.4513476,-8.050652,11.021939
1852,2.6129622,-5.655137,7.153343
1853,0.5913263,-5.185546,2.5082762
1854,-1.428216,-5.698208,3.7037904
1855,-7.783553,-9.672387,4.671388
1856,-8.868698,-11.964711,-0.006879365
1857,-8.1020975,-12.403196,1.5287145
1858,-4.8490553,-12.554243,6.942476
1859,-2.0006988,-14.274084,7.8430743
1860,-3.2847474,-15.902998,5.002196
1861,-3.6343985,-15.390336,3.3900316
1862,-4.1925244,-14.164015,0.232702
1863,-0.23509483,-12.877573,0.43639103
1864,5.1236315,-13.073785,-1.5233307
1865,7.016055,-14.001003,-1.5113666
1866,10.59482,-15.328123,-0.81655073
1867,10.443773,-15.0526495,1.6938193
1868,8.082058,-14.832211,3.4019957
1869,4.0791645,-15.145969,5.5579286
1870,0.5312066,-15.265909,8.154739
1871,-2.4152553,-16.341484,11.647364
1872,-2.3985057,-16.35584,9.215657
1873,0.69182485,-17.086248,3.6320057
1874,5.676972,-15.510277,-5.1068816
1875,5.4182477,-14.635699,-7.164709
1876,1.8104694,-13.675281,-6.16092
1877,0.581755,-13.941183,-5.257929
1878,-1.8161523,-15.488441,-4.6205406
1879,-2.8079774,-16.305592,-5.22413
1880,-5.8477592,-19.596918,-5.631508
1881,-6.724729,-20.6031,-3.6696925
1882,-7.3666034,-20.167007,-0.8979067
1883,-8.720044,-19.17279,1.0639088
1884,-12.250953,-17.65664,-0.75194454
1885,-15.422639,-14.523237,-3.4301112
1886,-14.543576,-11.289337,-3.1307094
1887,-8.720044,-9.610174,-4.004987
1888,-3.8117664,-8.407481,-8.048558
1889,-2.9949167,-6.1196437,-3.1139596
1890,-0.7692925,-2.7613173,-1.0393823
1891,3.1256247,-3.4680972,-1.5520446
1892,6.527321,-4.4021955,-1.9136599
1893,7.600502,-6.105287,-3.0059834
1894,7.5382886,-5.235795,-3.6338003
1895,4.284947,-3.9134614,-2.7616165
1896,2.5531418,-2.6751757,-2.4478576
1897,1.3073785,-1.3935201,-2.5869403
1898,0.40917268,-0.30358937,-3.2742786
1899,1.0055838,0.24735804,-3.5736806
1900,1.1279168,1.306182,-4.234997
1901,2.7568307,2.678765,-4.79073
1902,3.2742786,2.9808588,-5.2073803
1903,2.8788648,3.0526435,-6.8219376
1904,-0.2832504,1.7303098,-7.4234333
1905,-3.071487,-0.75613195,-1.5640087
1906,-3.9891346,-3.8153558,7.5173516
1907,-5.0045886,-8.031509,18.261126
1908,-11.304891,-15.739987,31.769506
1909,-14.931513,-21.67389,24.372095
1910,-11.381461,-22.037897,20.503498
1911,-9.925129,-21.177977,9.501001
1912,-7.0959153,-16.774883,7.6540413
1913,-6.7582283,-11.792428,4.532604
1914,-4.731508,-6.174978,2.02702
1915,-6.113662,-4.529314,1.3824533
1916,-4.3722854,-3.173182,-5.1068816
1917,-5.9844494,-4.800002,-9.452248
1918,-10.071092,-7.9450684,-7.8352976
1919,-16.519749,-16.51616,7.433603
1920,-17.98595,-27.363123,13.029517
1921,-12.90509,-27.849464,-4.2038903
1922,-0.42203408,-15.668202,-16.516758
1923,2.0620148,-9.102298,-14.449359
1924,-1.7994026,-6.407381,-7.2269225
1925,-2.515754,-5.8489556,-2.85045
1926,-1.931307,-5.4442697,-1.80359
1927,-1.6582261,-4.9052863,-3.3221352
1928,-0.44835514,-4.8885365,-4.150949
1929,0.45702913,-5.3342,-4.404887
1930,3.135196,-8.452945,-4.57747
1931,-0.4531408,-13.625031,-4.033701
1932,-1.6654046,-16.054045,-4.0241294
1933,-0.8389834,-17.618053,-3.6290147
1934,3.894618,-15.776178,-5.7631135
1935,5.3676996,-12.980465,-7.0112696
1936,4.749753,-10.982757,-4.328317
1937,4.800002,-9.070891,-3.295814
1938,4.706682,-8.105687,-3.2264223
1939,3.662215,-5.925825,-5.902196
1940,2.4646072,-6.984649,-1.4321043
1941,1.2810575,-9.236296,2.5154548
1942,1.7291135,-10.985149,5.2944193
1943,3.5186458,-11.382657,11.216057
1944,4.167699,-9.660423,12.636497
1945,3.3628132,-7.5499535,9.872188
1946,2.9051857,-6.1342998,3.9601214
1947,0.85244304,-5.8298135,0.040977087
1948,-3.830909,-8.024331,2.6210382
1949,-5.905486,-9.29133,1.2867404
1950,-9.086744,-11.215159,1.2604194
1951,-8.923733,-11.277373,6.005686
1952,-7.32114,-11.907284,6.7387867
1953,-4.0680976,-13.359129,8.319844
1954,-2.786442,-15.145969,7.5053873
1955,-2.352743,-15.960426,3.991228
1956,-2.7912276,-13.524234,1.5550356
1957,-2.6377878,-12.364911,-0.6655038
1958,0.79710907,-11.583954,-1.8562322
1959,4.5484567,-12.661921,-1.329213
1960,7.083054,-15.076577,-0.72083783
1961,9.586246,-16.204794,0.56799626
1962,8.989835,-16.094723,0.99930257
1963,8.053044,-15.464514,1.2149557
1964,6.673283,-15.5748825,3.2509487
1965,4.1988053,-16.061224,5.663213
1966,0.30867413,-16.899609,7.8311105
1967,0.43070808,-17.349758,6.242874
1968,0.55513483,-16.489838,1.9405792
1969,-1.3181462,-13.852349,-3.1689944
1970,-1.9839491,-12.563814,-4.613362
1971,-1.971985,-12.302697,-4.261318
1972,-1.5936198,-12.664313,-3.7414773
1973,-2.4367907,-13.385449,-4.536792
1974,-4.2164526,-14.626128,-4.4913282
1975,-6.125626,-16.79642,-3.5090744
1976,-7.5774713,-19.081863,-2.3665016
1977,-7.673184,-19.958534,0.19920248
1978,-8.286644,-20.03032,-0.33738798
1979,-9.079565,-19.81257,0.12502499
1980,-12.931412,-18.447166,-3.4037902
1981,-13.820046,-13.934005,-3.2647073
1982,-11.35514,-11.770893,-1.6692929
1983,-9.81476,-11.593525,-1.7291135
1984,-1.4497514,-9.514162,-3.3053854
1985,-0.18484555,-7.6049886,-0.5626124
1986,3.3699915,-6.0717874,-0.3589234
1987,9.5048895,-6.285048,-2.2058833
1988,9.246166,-7.3510504,-1.817947
1989,8.769396,-7.815856,-3.7701912
1990,6.107979,-6.285048,-3.4277184
1991,3.0610185,-3.3194432,-2.5701907
1992,1.8200407,-1.314557,-2.4311078
1993,0.35174492,0.31465617,-3.8228333
1994,0.100199446,1.5720844,-4.261318
1995,-1.2556337,2.7843482,-4.0408792
1996,-1.3923237,3.7160535,-3.501896
1997,-0.06759724,3.5940197,-4.2254257
1998,0.89312106,2.7412775,-5.7801623
1999,-0.096311115,1.9076779,-7.2173514
2000,-2.0581267,1.0283155,-4.45065
