,ax,ay,az
501,8.597113,-6.625128,-4.4264226
502,7.123732,-6.582057,-5.078168
503,3.3963127,-3.6834514,-4.3905306
504,1.5278172,-1.7503498,-4.5655055
505,0.11934203,0.93978107,-4.3235316
506,0.15044872,3.4166517,-3.8324046
507,-0.0317049,4.727021,-4.1703906
508,0.5383851,5.426623,-4.726124
509,1.0127622,5.8097734,-4.857729
510,1.0677971,5.2085767,-6.285347
511,-1.3851452,4.921139,-7.54786
512,-2.038984,3.2443683,-3.2934213
513,-1.7060826,-0.72263247,0.3475575
514,-2.0868404,-4.8909297,7.8263245
515,-2.9012976,-10.299905,20.752651
516,-10.9070835,-18.425333,25.775785
517,-15.420246,-23.178076,20.232811
518,-15.544972,-26.860033,21.679571
519,-13.321741,-26.059933,11.810075
520,-8.518747,-17.673388,7.373782
521,-6.700801,-9.866206,8.360522
522,-5.8453665,-5.762814,5.3709893
523,-2.1445673,-2.5121646,-6.7429743
524,0.16002001,2.856133,-17.616259
525,-4.9782677,1.8547367,-8.544471
526,-11.240284,-3.3146574,-7.073483
527,-13.29542,-8.505588,-6.2350974
528,-26.212175,-21.005394,31.136904
529,-28.382465,-39.728634,-5.02074
530,-12.473784,-30.187252,-24.060131
531,-3.6056845,-17.038393,-8.551649
532,-1.8762721,-11.159825,-2.9892337
533,0.3182454,-8.115258,-2.6635108
534,2.7089744,-6.385546,-5.3416777
535,5.669793,-6.335297,-10.6357975
536,10.034302,-7.135397,-15.807585
537,4.5484567,-11.809178,-10.08485
538,0.3278167,-15.131612,-2.7879374
539,1.3289139,-13.653745,-1.2215359
540,3.3867414,-10.975578,-2.6491537
541,2.91715,-8.615956,-2.80708
542,4.0552363,-7.571489,-3.2599218
543,5.401498,-6.33769,-3.6984065
544,4.666004,-6.2060847,-3.5497525
545,2.91715,-6.308976,-3.3702908
546,0.8572287,-5.6647086,-2.8815567
547,-0.831805,-5.535197,-2.074278
548,-1.2340983,-7.7464643,-0.474078
549,-0.6161518,-8.822038,0.14416756
550,0.55752766,-9.253045,0.4459623
551,0.36131623,-9.109476,0.66400826
552,-0.80787677,-9.023035,1.1117653
553,-4.6956153,-9.070891,9.886545
554,-10.406385,-10.072288,22.721645
555,-8.8136635,-9.90479,12.660424
556,-6.7797637,-11.550454,5.718248
557,-4.985446,-13.567305,5.636892
558,-3.1169505,-14.343476,4.2762733
559,-3.8261235,-13.81885,2.1969104
560,-5.124529,-13.0259285,-0.5027919
561,-2.8749764,-12.063116,-0.011665011
562,-1.2317054,-11.38505,-0.7040881
563,1.6932211,-13.299009,2.2184458
564,3.6670008,-14.180764,2.7933214
565,5.5187464,-14.746069,1.5717853
566,7.262815,-15.04547,1.4542379
567,7.150053,-14.841782,3.1863425
568,6.2374907,-14.082359,6.108876
569,4.610969,-13.239188,7.5532436
570,2.0811574,-13.098012,8.279166
571,1.233201,-13.526627,7.699505
572,0.3684947,-13.509876,5.461917
573,-0.06759724,-14.817853,0.007477571
574,0.45942193,-15.615561,-6.285347
575,3.1088748,-15.023935,-7.9624166
576,1.3651053,-14.695819,-8.151449
577,-0.64008003,-15.100506,-5.2770715
578,-2.8606195,-15.891034,-3.693621
579,-5.306383,-17.519949,-3.05384
580,-8.914162,-21.8031,-2.3018954
581,-11.989836,-26.105396,-1.721935
582,-11.750554,-27.255148,-1.7940187
583,-16.483856,-23.832214,-5.197809
584,-20.520248,-18.6362,-2.3042881
585,-19.928623,-13.63221,-0.8141579
586,-14.605789,-7.3175507,-3.636193
587,-11.49183,-6.9173512,-6.5105715
588,-4.4201417,-6.308976,-9.442677
589,-1.6007984,-3.5494533,-5.9931235
590,-0.22313072,-2.2462623,-1.9064814
591,4.8239303,-3.2237303,-2.819044
592,3.4704902,-4.6298127,-0.25124636
593,7.2361946,-4.9292145,-3.0059834
594,8.311769,-5.8707905,-4.2373896
595,5.9042897,-5.401199,-5.0255256
596,3.4872398,-3.1974092,-4.462614
597,1.6860427,-1.7790636,-4.8098726
598,0.68464637,1.1937194,-4.1150565
599,0.7492526,2.9183464,-3.5856447
600,0.040378883,4.4539404,-4.3331027
601,0.47856453,5.381159,-4.508078
602,0.9696914,5.371289,-5.1092744
603,-0.52283174,5.651847,-5.796912
604,-1.6414764,4.2335014,-4.263711
605,-1.9504496,0.9421739,-0.7088737
606,-1.483251,-2.996113,5.2274203
607,-4.269394,-8.39791,15.726827
608,-11.803196,-16.822739,27.752256
609,-15.523437,-22.152752,23.790041
610,-18.151054,-25.933113,23.18406
611,-17.375183,-26.333014,13.170694
612,-10.13809,-19.002901,6.5255265
613,-5.641977,-11.025827,6.38435
614,-4.7099724,-8.254042,8.633603
615,1.015155,-2.4858437,-6.8099732
616,0.38763726,-0.3179463,-12.897015
617,-4.633402,-2.437987,-9.076276
618,-13.561322,-9.909575,-10.714761
619,-19.31307,-20.857038,6.611967
620,-28.65076,-36.640995,24.010479
621,-19.854446,-38.78496,-15.536897
622,-1.7084754,-17.766708,-13.253844
623,-4.2837505,-9.746565,-4.9776692
624,-1.9815563,-6.6948185,-3.7247276
625,0.3900301,-4.6872406,-4.215854
626,2.2345972,-3.2907293,-5.425426
627,9.890433,-1.4772689,-16.25564
628,8.261519,-4.8358946,-15.057734
629,-1.2364911,-12.649956,-5.0733824
630,-1.8233309,-14.793925,-1.7892331
631,0.5096712,-14.058432,-0.9508479
632,2.82383,-12.803097,-1.7147565
633,4.488636,-11.097612,-6.2350974
634,4.42403,-10.182656,-7.5670023
635,3.8994036,-8.682955,-5.892625
636,4.019045,-7.583453,-4.9992046
637,3.4489548,-7.159325,-3.9308095
638,2.3087747,-6.7091756,-3.2336006
639,-0.3574279,-6.1821566,-2.0240288
640,-1.3372887,-6.72114,-1.1973087
641,-1.6271194,-8.175078,-1.1327025
642,-2.024627,-8.409874,-0.16749759
643,-1.6630118,-9.0015,0.64217377
644,-1.3106686,-10.328619,2.661716
645,-5.3015976,-11.248659,17.365313
646,-14.205889,-11.169397,28.77758
647,-14.246567,-11.009078,12.18874
648,-11.391032,-12.467802,2.8342984
649,-4.9806604,-13.536198,2.4149563
650,-6.250352,-14.944673,3.9720855
651,-5.093422,-13.893327,-0.9314062
652,-1.0375878,-13.045071,3.5671003
653,2.0045872,-13.464413,3.3637104
654,5.389534,-13.7686,2.8151557
655,7.516454,-13.929219,1.2293127
656,9.186345,-13.703995,0.10797612
657,9.722936,-12.951751,0.21355942
658,6.8051877,-12.3912325,3.0041888
659,5.0180483,-11.1885395,5.593821
660,3.1686954,-10.905888,6.9185476
661,0.0041874396,-11.267802,6.856334
662,-1.9935204,-12.170794,6.7555366
663,-5.229813,-14.03211,4.0295134
664,-2.906083,-14.676377,-0.37806597
665,0.8739785,-17.177475,-6.096314
666,2.7089744,-18.233908,-7.401898
667,1.3432708,-18.396618,-8.070093
668,-1.5335002,-18.075682,-5.863911
669,-5.608477,-19.654346,-3.4157543
670,-6.561718,-20.916859,-3.1929228
671,-11.851052,-27.384659,-2.8337002
672,-12.088241,-29.099714,-2.6850462
673,-15.247963,-26.34019,-1.8251255
674,-17.315063,-20.6366,-0.5051847
675,-16.531713,-15.941283,-2.3042881
676,-13.360325,-9.509377,-3.5234313
677,-10.610075,-8.369196,-3.5210385
678,-3.3206396,-6.4624157,-9.677472
679,-2.0485554,-4.0716867,-4.9103713
680,-2.5803602,-3.063112,0.064905316
681,3.0035906,-3.24048,-2.6611178
682,2.4188447,-4.316054,1.0806586
683,5.899504,-5.0129633,-1.2358929
684,7.962117,-5.834599,-6.213562
685,6.3044896,-4.7662034,-6.25424
686,3.7076788,-2.3300111,-5.7729836
687,1.3842479,-0.12861422,-5.432605
688,0.90508515,3.0670004,-4.54397
689,0.9026923,5.412266,-5.3967123
690,1.8104694,6.6050878,-5.873482
691,1.4991034,6.3272214,-4.5272202
692,2.0261226,5.8839507,-5.5980086
693,0.018544376,6.034998,-6.721439
694,-2.105983,4.8011985,-3.9690945
695,-2.0461624,1.3372887,-0.5099703
696,-1.7060826,-2.0688944,5.050052
697,-2.5923243,-6.4002023,12.921541
698,-5.1699924,-10.14168,18.428923
699,-13.479966,-17.191832,21.212372
700,-18.11995,-22.833212,16.878971
701,-19.018454,-26.608486,18.505491
702,-14.486148,-25.758137,11.527423
703,-7.867302,-17.831314,6.101698
704,-6.5665035,-11.294123,5.390132
705,-5.979664,-8.419446,7.900801
706,-7.3977103,-9.526126,-0.39481574
707,-7.8816586,-11.792428,-5.0662036
708,-11.72872,-15.24916,-7.6390862
709,-16.064814,-20.40659,-0.5937191
710,-14.284852,-26.771498,11.987443
711,-8.068598,-24.174686,-5.171488
712,-1.8424734,-11.935998,-13.467105
713,-1.8376877,-6.5700927,-8.003095
714,-1.8185452,-4.054937,-4.345067
715,-0.2111666,-2.87378,-3.1570303
716,3.2356944,-1.5804594,-6.302396
717,7.3369923,-0.46630132,-11.792727
718,10.6307125,-0.83778703,-17.39582
719,1.6043876,-7.001399,-9.979267
720,-3.0762727,-13.224832,-4.3857446
721,-2.0916262,-17.306688,-0.6969096
722,0.98883396,-16.820347,0.6517451
723,5.1882377,-16.054045,-4.699803
724,4.76411,-14.571094,-10.259526
725,1.0606186,-12.872787,-8.664112
726,0.63200426,-10.807781,-5.8615184
727,0.6559325,-9.272188,-4.963312
728,0.39960137,-8.1679,-4.239783
729,-0.69272214,-7.46112,-2.6826532
730,-2.0437696,-6.8575306,-0.7040881
731,-2.2666013,-6.067002,0.94666046
732,-1.2939188,-6.174978,2.391028
733,-1.5191432,-7.394121,3.7396827
734,-1.9336998,-8.556135,4.879863
735,-2.065305,-8.826823,7.5963144
736,-7.711469,-9.794421,18.905691
737,-10.804193,-9.789636,18.412172
738,-11.704791,-10.77189,10.073484
739,-8.128419,-11.823535,5.469095
740,-4.0585265,-12.954144,0.36430725
741,-3.739982,-14.72214,2.161018
742,-4.4895334,-13.905291,1.9764715
743,-3.3397822,-12.537194,1.5861423
744,-0.31435707,-12.515658,1.8400806
745,2.835794,-13.109976,2.5707889
746,6.1824555,-14.290834,1.8951155
747,9.066405,-14.738891,0.69272214
748,9.866505,-14.599808,1.3082758
749,8.6090765,-13.910076,3.761218
750,6.8913293,-13.540983,4.9926243
751,4.634897,-12.676277,6.003293
752,2.2082763,-13.119548,6.8057857
753,-0.2425724,-13.600804,7.390532
754,-1.3253247,-14.235799,4.729115
755,-3.0355947,-15.234802,0.09601201
756,-0.0077766734,-15.788143,-6.0915284
757,0.9840483,-16.101902,-7.2699933
758,1.1063814,-16.825132,-6.769295
759,-1.0857433,-17.196619,-5.3105707
760,-4.384249,-18.640985,-4.7715874
761,-6.753443,-21.338295,-4.9007998
762,-10.140483,-24.998716,-4.994419
763,-12.967304,-28.496124,-4.3187456
764,-14.859728,-26.788248,-6.580262
765,-17.24567,-21.058035,-0.69212395
766,-16.174883,-14.161622,1.3513466
767,-14.107484,-9.224331,-0.7280163
768,-12.011372,-7.1545396,-3.1785657
769,-8.475677,-6.3185472,-6.122635
770,-4.008277,-5.7484574,-10.23799
771,0.7827521,-1.6115661,-4.194319
772,1.0486546,-0.8330014,-1.7003996
773,5.7894344,-3.4199417,-2.4933212
774,6.2111692,-4.3926244,-0.66071814
775,8.213663,-5.535197,-0.89072824
776,6.649355,-4.9196434,-5.104489
777,4.898407,-3.8775692,-5.085346
778,2.6129622,-1.9540387,-4.3522453
779,1.5804594,-0.5192425,-4.793123
780,1.1303096,1.742274,-5.2289157
781,0.5913263,3.8551364,-4.9079785
782,0.47856453,5.6733823,-5.308178
783,1.3504493,5.273183,-5.4206405
784,1.1997014,5.8265233,-7.6534433
785,-1.2053844,5.0048876,-5.6793647
786,-1.2891332,1.8547367,-1.2550355
787,-1.576571,-0.6939186,1.9525433
788,-1.7060826,-4.2801614,9.349955
789,-6.98106,-11.694023,23.128725
790,-15.087345,-19.213469,25.047768
791,-17.2361,-22.665415,20.330917
792,-17.50918,-25.985754,18.702003
793,-12.219846,-23.65724,9.098409
794,-8.030313,-15.967605,4.5972104
795,-6.142675,-10.733604,4.7626143
796,-3.521936,-6.7522464,6.8371916
797,-3.1360931,-5.195117,-9.246465
798,-4.089633,-5.2022953,-11.10509
799,-10.396814,-8.781061,-8.992527
800,-17.408682,-15.280267,-3.3197422
801,-20.374287,-26.929424,16.517355
802,-19.22663,-38.82564,4.3743787
803,-0.5132605,-20.835203,-21.769901
804,-0.82701933,-9.986146,-10.724332
805,-2.4128625,-6.524629,-5.8184476
806,-0.91555375,-3.9014974,-2.9557343
807,0.5312066,-2.586342,-3.734299
808,3.8060834,-1.6163517,-7.6630144
809,11.507383,0.024526432,-16.545471
810,9.631709,-2.277369,-15.249458
811,-0.70947194,-10.362119,-8.431708
812,-2.2307088,-14.518452,-3.3197422
813,0.6966105,-15.023935,0.3068795
814,1.7793628,-14.575879,0.5919245
815,4.735396,-13.785351,-4.2924247
816,3.9257247,-12.640385,-8.922835
817,1.9734805,-11.456835,-6.8653073
818,1.1303096,-10.12493,-5.0327044
819,2.1529422,-8.879466,-4.3235316
820,1.5397813,-8.208578,-3.5641093
821,-0.17766708,-8.005188,-2.0383859
822,-1.4665012,-7.001399,-0.7256235
823,-1.483251,-6.6370916,0.68075806
824,-0.6089734,-7.492526,1.9764715
825,-0.43878385,-8.012366,3.0858438
826,-0.30000013,-8.82443,3.519244
827,0.008973085,-9.085547,3.7995033
828,-1.4162519,-9.066106,8.11137
829,-6.8371916,-9.114262,17.34617
830,-10.403993,-10.069895,13.168302
831,-9.055338,-12.793526,5.2944193
832,-5.3039904,-13.751851,4.889434
833,-6.480362,-14.983257,3.298805
834,-5.8597236,-14.964114,-0.20817557
835,-4.1207395,-13.794922,1.0950154
836,-0.27367908,-12.554243,1.7970098
837,2.9338996,-12.75524,2.2857437
838,5.2049875,-13.306188,1.7033906
839,7.813762,-13.6199465,1.4207385
840,8.345567,-14.068003,2.225624
841,7.6722865,-13.7374935,4.7841496
842,6.70439,-13.47877,5.783153
843,5.0108695,-13.282259,6.5279193
844,3.077768,-14.022539,6.544669
845,1.4273187,-13.385449,6.1567326
846,-0.1680958,-13.873885,4.293023
847,0.21744776,-15.179469,-0.87158567
848,2.5938199,-16.518553,-5.8543396
849,3.760321,-16.274185,-7.085447
850,2.5914268,-15.974783,-8.036594
851,0.28923243,-16.085152,-6.309574
852,-3.19382,-17.500805,-5.5453663
853,-6.6720867,-21.043678,-4.215854
854,-10.025628,-25.492235,-4.881657
855,-13.66212,-30.723843,-3.5234313
856,-16.500607,-29.468807,-6.704689
857,-19.255642,-23.535206,-4.124628
858,-17.842083,-15.404693,1.250848
859,-15.841982,-9.408877,0.8530413
860,-14.213067,-7.0803623,-2.579762
861,-8.595617,-6.483951,-7.2508507
862,-2.0318055,-6.2084775,-14.806189
863,-1.8523438,-1.6163517,-2.9006991
864,0.27726832,-2.6126633,-0.37567315
865,2.768795,-3.8608193,-2.5821548
866,5.406284,-4.531707,-0.13609178
867,8.355139,-4.3040895,-3.1522448
868,7.2122664,-4.478766,-5.8304114
869,5.238487,-3.266801,-5.5669017
870,3.336492,-1.8966111,-5.28425
871,2.0117657,-0.025722843,-4.340281
872,1.9280169,2.5710878,-3.9116669
873,1.7865412,3.7833517,-4.503292
874,1.9040886,4.85414,-5.2962136
875,2.5579274,5.503193,-5.875875
876,2.9099715,5.6132627,-8.570791
877,0.22701904,4.5687957,-8.043773
878,0.2844468,2.3913271,-3.353242
879,-0.8030911,-1.4294125,3.219842
880,-1.4976078,-4.8263235,10.169197
881,-6.535397,-10.917851,26.472994
882,-15.913766,-21.508484,31.292736
883,-18.63261,-30.697521,27.265915
884,-16.12942,-32.896824,12.797114
885,-9.642477,-26.735605,8.444571
886,-6.875477,-16.681562,4.254738
887,-4.822734,-6.3664036,4.534997
888,-3.1624143,-3.56381,4.7841496
889,-0.6735796,-0.878465,-6.9729843
890,-2.053341,-0.04007978,-12.104094
891,-7.6660056,-4.066901,-10.3340025
892,-12.207882,-8.656634,-6.0170517
893,-18.69961,-21.601805,11.35484
894,-20.678474,-39.498623,0.80757767
895,-4.592724,-28.230223,-23.24328
896,0.6966105,-13.926826,-12.614363
897,-2.882155,-8.548957,-5.770591
898,-1.1934203,-5.65753,-3.3173494
899,0.38763726,-4.0812583,-3.5641093
900,2.0500507,-3.187838,-5.736792
901,7.610073,-1.707279,-11.632109
902,9.004191,-4.6154556,-13.812269
903,-1.8305093,-12.716955,-8.518149
904,-2.1708884,-15.840785,-3.5330026
905,0.35413775,-15.684953,-1.2020943
906,2.1723838,-15.304194,-0.97956175
907,3.6598222,-13.72553,-2.7616165
908,3.0466614,-11.502598,-5.5836515
909,2.035694,-10.482059,-5.365606
910,0.96490574,-9.3562355,-4.2014976
911,0.21984059,-7.978568,-3.0825539
912,-0.20638095,-7.561918,-2.5028925
913,-0.74536425,-6.622735,-1.2957134
914,-1.3803595,-5.6407804,-0.052342996
915,-0.8365906,-5.2405806,1.3345969
916,-0.71665037,-6.58445,1.9908284
917,-0.6759724,-8.596813,1.7177476
918,-0.63529444,-9.131011,-0.102592275
919,-1.4473586,-9.387342,-1.451247
920,-0.7815557,-9.569197,-1.4153546
921,-1.6965113,-10.041182,0.49142596
922,-7.8840513,-9.971789,13.649857
923,-12.183954,-11.186147,23.11676
924,-9.254242,-13.222439,13.113266
925,-7.5272217,-15.320944,4.9878387
926,-5.6706905,-16.27897,1.4665012
927,-5.0045886,-15.749558,0.84107715
928,-4.8681974,-14.532808,-0.16271193
929,-1.6677973,-13.315759,4.072584
930,3.908975,-13.169797,4.7578287
931,8.965906,-13.943576,1.346561
932,10.738688,-14.971293,-0.9385847
933,10.39831,-13.941183,1.4087744
934,7.7153573,-13.294224,3.73729
935,5.5929236,-12.096616,5.6871414
936,2.5292134,-11.531311,8.444571
937,-1.8376877,-12.671492,11.391032
938,-4.88734,-14.386547,8.49482
939,-3.5769708,-16.118652,2.4221346
940,2.6129622,-16.32952,-5.3512487
941,4.65404,-16.887646,-6.434001
942,3.6023946,-16.499409,-5.899803
943,2.5220351,-16.042082,-4.821837
944,-1.3660027,-16.99293,-3.813262
945,-3.7758741,-18.952353,-4.8696933
946,-7.6827555,-24.22015,-6.8461647
947,-9.72144,-27.868607,-5.324928
948,-12.313465,-29.322546,-2.4143581
949,-13.956737,-25.228725,-5.358427
950,-17.030018,-19.034006,0.92482597
951,-15.6981125,-12.860824,-1.1757733
952,-13.206885,-7.9283185,-1.5520446
953,-9.6783695,-7.4659057,-3.4540396
954,-2.5301108,-6.553343,-13.352249
955,-2.0676978,-4.488337,-7.2245297
956,-1.3707882,-3.4800615,-1.7315062
957,2.2417758,-4.5412784,-1.0968101
958,5.7224355,-6.038288,1.5502499
959,8.999406,-7.3366933,-3.3293135
960,7.4398837,-7.46112,-5.5022955
961,4.060022,-4.910072,-5.5477595
962,2.3087747,-2.0306091,-5.2483573
963,1.6621144,-0.42562333,-4.634897
964,2.7352953,2.0847468,-4.7452664
965,2.6608188,3.3544383,-5.36082
966,2.9916265,5.0288157,-6.527321
967,3.3628132,5.831309,-5.743971
968,2.2202404,6.140282,-7.43779
969,-2.0222342,5.4840503,-7.219744
970,-1.5478572,3.4716866,-2.917449
971,-2.2594228,0.7408777,1.7419748
972,-2.7553353,-2.289333,11.149058
973,-8.6961155,-7.8948193,21.31317
974,-16.09592,-15.313766,25.622644
975,-17.846869,-21.127728,19.983658
976,-18.81955,-25.501806,15.992729
977,-15.688541,-26.177181,9.067303
978,-9.165708,-18.792032,5.258527
979,-5.922236,-10.949257,5.826224
980,-5.445466,-8.496016,6.099305
981,-2.4942186,-6.392725,-5.439783
982,0.5913263,-4.109972,-11.881262
983,-6.571289,-7.799106,-10.619048
984,-13.254742,-12.716955,-6.8629146
985,-16.014265,-24.426233,17.52593
986,-20.769402,-38.26512,5.2537413
987,-4.0274196,-23.48705,-18.917057
988,-2.7601209,-11.531311,-11.009377
989,-3.2584262,-6.8503523,-4.8122654
990,-1.5382859,-4.9028935,-2.5316064
991,-0.654437,-3.9804604,-3.4085758
992,2.181955,-2.8019953,-5.6745787
993,7.3728848,-1.4700904,-11.636895
994,5.8277197,-6.287441,-13.42882
995,-1.0160524,-12.139687,-6.0194445
996,-1.0713863,-15.332909,-2.498107
997,1.4727824,-14.803496,-1.1207383
998,3.37717,-13.941183,-1.7243278
999,7.178767,-11.627025,-5.456533
1000,5.68415,-9.8015995,-5.799305
1001,3.0993035,-8.50798,-4.182355
1002,2.9315069,-7.6480594,-3.6601214
1003,3.2623146,-7.25773,-3.8997028
1004,0.581755,-7.576275,-2.630011
1005,-1.3325031,-7.082755,-2.498107
1006,-2.5372894,-6.8575306,-0.5721837
1007,-1.2005987,-8.196614,1.3058829
1008,0.663111,-8.92493,2.3072793
1009,1.6091732,-8.968,2.184946
1010,-0.0029910284,-9.528519,0.85064846
1011,-1.5693926,-9.835099,1.4617156
1012,-8.384749,-8.92493,20.23999
1013,-12.859627,-9.552447,22.549063
1014,-11.000703,-11.653345,8.681459
1015,-5.7113686,-13.86192,2.335993
1016,-3.7304106,-15.641882,3.8042889
1017,-4.822734,-15.641882,3.73729
1018,-5.771189,-14.077574,-1.6764714
1019,-3.7543387,-12.563814,0.06729814
1020,0.3278167,-12.036796,2.824727
1021,4.5508494,-12.079866,2.2905295
1022,7.792227,-13.26551,-0.11934203
1023,8.810074,-14.051252,-0.8452646
1024,8.309376,-14.209478,0.30927232
1025,7.3345995,-14.068003,1.2221341
1026,5.183452,-14.578272,4.281059
1027,3.444169,-14.67877,6.8802624
1028,0.88354975,-14.8944235,9.445667
1029,-1.6103697,-14.528023,10.13809
1030,-3.708576,-14.868103,6.949654
1031,-2.4702902,-15.934105,0.69272214
1032,3.7076788,-14.72214,-3.583252
1033,4.5652065,-13.672888,-6.623333
1034,3.8228333,-13.845171,-6.870093
1035,1.314557,-14.673985,-5.092525
1036,-1.468894,-15.981961,-4.1727834
1037,-3.9864426,-18.2028,-4.383352
1038,-6.856334,-21.829422,-4.855336
1039,-9.949058,-26.103003,-5.382355
1040,-11.609078,-28.230223,-4.2182474
1041,-15.511473,-24.529123,-6.841379
1042,-17.660227,-19.402802,1.5311074
1043,-16.79283,-13.5074835,1.8089739
1044,-14.165211,-8.553742,-0.7160522
1045,-11.733505,-6.7666035,-2.1795623
1046,-4.6764727,-6.230013,-7.7156568
1047,0.79950184,-3.8081772,-9.47139
1048,1.4321043,-0.26291138,-3.0996027
1049,2.6632116,-2.7182465,-1.4416757
1050,3.353242,-2.7086751,0.15134603
1051,6.706783,-3.8440695,-0.81655073
1052,7.4709907,-4.406981,-3.353242
1053,4.953442,-3.1827533,-4.8242297
1054,2.4358935,-1.0339985,-4.682754
1055,2.2274187,0.45583272,-4.3666024
1056,1.9734805,1.6369898,-4.275675
1057,1.3651053,2.935096,-5.0709896
1058,0.8356933,3.8001015,-4.939085
1059,1.0342976,4.9666023,-5.0590253
1060,3.5210385,4.62413,-6.8677
1061,1.0055838,3.629912,-7.7012997
1062,-0.4316054,1.8667008,-5.2698927
1063,-1.2005987,-0.69152576,-0.33020952
1064,-1.361217,-5.144868,9.48156
1065,-2.7003005,-7.846963,15.338592
1066,-12.49532,-18.291334,30.47828
1067,-19.648363,-27.252754,25.10041
1068,-20.721544,-34.37948,21.430418
1069,-10.562219,-28.122545,12.167204
1070,-6.573682,-17.876778,7.2299137
1071,-5.306383,-10.644771,2.1586251
1072,-4.2598224,-4.3591247,3.9649072
1073,-3.8787656,-3.0870404,1.4015958
1074,-4.5448675,-4.2248273,-4.6950173
1075,-5.2250276,-6.2324057,-11.280065
1076,-8.617152,-9.900004,-8.539685
1077,-13.37229,-14.654842,-5.7080784
1078,-14.078771,-23.834608,16.28256
1079,-16.4695,-34.806,3.3876386
1080,-3.263212,-20.025532,-18.931414
1081,-1.6749759,-9.837492,-10.808081
1082,-2.4535406,-5.9138613,-4.0241294
1083,-0.8964112,-4.4261236,-2.838486
1084,0.17916259,-3.4872398,-4.138985
1085,4.455137,-2.2295125,-8.199605
1086,8.872586,-1.7359928,-15.484255
1087,3.5712879,-8.541779,-11.898011
1088,-1.4712868,-13.672888,-1.6980067
1089,-0.25692934,-14.357833,-0.53629136
1090,1.8559331,-13.917254,-1.0920244
1091,5.6674004,-12.937394,-5.241179
1092,4.7042894,-12.379268,-6.6735826
1093,2.888436,-11.040185,-6.5778694
1094,1.9375881,-9.734601,-4.970491
1095,1.9160527,-8.83161,-4.3737807
1096,1.6091732,-7.9737825,-3.6984065
1097,-0.25932217,-7.434799,-1.7724833
1098,-1.4377873,-6.467201,-0.21535404
1099,-1.6151553,-5.3629136,1.3489537
1100,-1.4497514,-6.3185472,2.7358935
1101,-1.1910275,-8.376375,3.3203406
1102,-0.6017949,-9.653245,2.2112672
1103,-0.5587241,-10.149158,0.91525465
1104,-0.9275179,-10.450952,1.5358931
1105,-2.4702902,-10.264012,5.9147587
1106,-11.613864,-9.626924,20.352451
1107,-11.822338,-9.978968,12.404094
1108,-8.370393,-12.312269,5.667999
1109,-4.025027,-13.529019,3.3804603
1110,-4.3292146,-15.15554,3.519244
1111,-4.032205,-14.966507,1.7324036
1112,-3.6056845,-13.986647,-1.6334006
1113,-0.13459627,-12.939787,2.417349
1114,4.368995,-13.153047,3.3661032
1115,7.543074,-13.409378,1.7563318
1116,8.973084,-13.989039,0.20877378
1117,8.915657,-14.020146,0.232702
1118,8.278269,-13.322937,1.1524432
1119,7.1213393,-13.469198,2.3575284
1120,6.139086,-14.108681,3.5096726
1121,4.3905306,-15.062221,6.1208405
1122,0.56500524,-15.950855,9.017053
1123,-0.8676973,-16.73899,7.213164
1124,1.0845468,-17.361723,-0.5267201
1125,2.0285153,-16.034903,-6.038886
1126,1.1207383,-15.007185,-5.873482
1127,0.9098708,-14.060824,-5.957231
1128,-0.5419743,-14.276477,-5.1092744
1129,-3.830909,-16.561623,-4.194319
1130,-7.09113,-19.565811,-3.1426735
1131,-9.709476,-22.411476,-3.2312078
1132,-12.373286,-25.918457,-3.8706896
1133,-14.545969,-25.705496,-7.2006016
1134,-15.173487,-19.69263,-1.7940187
1135,-14.845371,-13.92204,0.93708915
1136,-13.990235,-9.993324,1.1524432
1137,-12.183954,-7.803892,-1.451247
1138,-10.403993,-5.959325,-7.478468
1139,-4.1781673,-6.1582284,-13.876876
1140,1.9710877,-2.4595225,-2.440679
1141,4.6205406,-1.7647067,-1.0058829
1142,6.1848483,-4.0334015,-1.5089738
1143,7.938189,-5.1233325,0.3164508
1144,9.150453,-5.6168523,-2.158027
1145,6.4408803,-5.35095,-4.692325
1146,3.8347974,-3.8273199,-3.952345
1147,1.2260225,-2.1720848,-4.33071
1148,0.7899306,-0.526421,-4.5272202
1149,0.622433,1.6199409,-4.2278185
1150,0.61046886,2.449054,-4.275675
1151,1.0869397,4.025027,-4.627719
1152,1.3576277,4.935496,-6.203991
1153,1.2355938,5.1607203,-6.96102
1154,-2.5588248,4.211966,-5.9931235
1155,-3.1193435,2.39372,-3.2001011
1156,-2.6548367,-0.5288138,1.7057835
1157,-1.7659031,-4.2705903,7.9486575
1158,-4.556832,-9.789636,19.384556
1159,-11.000703,-17.773886,26.925835
1160,-15.710077,-23.801107,20.910578
1161,-14.526826,-27.93082,20.560926
1162,-11.597114,-27.528229,10.672288
1163,-7.5320077,-19.225433,5.9961143
1164,-7.89123,-12.242578,2.1801605
1165,-7.036095,-8.055437,3.0858438
1166,-9.417253,-9.907183,-0.102592275
1167,-8.880662,-12.084652,-3.5114672
1168,-8.047063,-13.629817,-7.1192455
1169,-8.978767,-16.374983,-7.765906
1170,-10.246066,-20.380268,4.9902315
1171,-11.132308,-22.936102,7.1916285
1172,-4.8299127,-13.749458,-12.15195
1173,-1.9767706,-7.8684983,-9.677472
1174,-2.1804597,-5.1472607,-6.62094
1175,-2.0365913,-4.215256,-4.558327
1176,-0.88205427,-3.5470605,-3.8515472
1177,0.3589234,-3.2787652,-4.7715874
1178,5.9452667,-1.87029,-10.942378
1179,9.353843,-3.0080771,-14.883058
1180,0.6750751,-9.93829,-10.463215
1181,0.06430711,-15.014364,-5.9356956
1182,2.7855446,-16.44916,-2.9389844
1183,5.0276194,-15.843178,-2.996412
1184,6.2159553,-13.076178,-5.2866426
1185,3.2934213,-11.41855,-7.2101727
1186,1.4679967,-10.1683,-5.933303
1187,1.2571292,-9.111869,-4.9920263
1188,0.9529416,-8.175078,-3.7486558
1189,0.35653058,-7.6073813,-2.5292134
1190,-0.65922266,-7.0301127,-1.288535
1191,-1.5430715,-5.8971114,0.37627137
1192,-1.7012969,-5.99761,2.201696
1193,-1.8185452,-8.036295,4.0438704
1194,-1.5406786,-9.820743,4.642674
1195,-1.3516457,-9.947861,4.642674
1196,-0.7286145,-9.741779,5.229813
1197,-1.2915261,-9.765707,6.702894
1198,-4.81077,-10.599307,14.531313
1199,-8.301001,-11.478371,13.999508
1200,-7.6923265,-13.203297,6.070591
1201,-5.0623155,-14.961721,4.9663033
1202,-4.310072,-15.950855,3.4689946
1203,-4.6764727,-15.007185,3.8425741
1204,-6.655038,-14.1879425,0.41964126
1205,-2.295315,-12.930216,2.4245276
1206,1.463211,-12.73849,3.449852
1207,7.032805,-13.540983,2.4029922
1208,9.4737835,-15.143577,0.9128618
1209,10.079765,-15.577275,1.1165509
1210,9.399606,-14.858531,3.0329027
1211,7.705786,-14.932709,4.130012
1212,5.0994043,-14.096716,6.396314
1213,2.6703901,-14.611772,8.499605
1214,-1.6606189,-15.404693,6.856334
1215,-1.495215,-15.914963,1.2532408
1216,0.80907315,-14.214264,-4.740481
1217,0.06909275,-13.883456,-5.1236315
1218,1.8870398,-13.473985,-6.1680984
1219,0.7899306,-14.78914,-6.989734
1220,-2.2498515,-16.633707,-5.3536415
1221,-5.4167523,-19.381266,-4.1174498
1222,-8.528319,-23.269302,-3.9930227
1223,-11.740684,-28.132116,-4.7859445
1224,-14.979668,-29.126036,-6.302396
1225,-14.660825,-24.804598,-4.9776692
1226,-14.169996,-16.427626,0.37387854
1227,-13.642978,-11.646167,0.77647096
1228,-12.162418,-8.678169,-0.6343971
1229,-9.098708,-6.8431735,-4.2134614
1230,-3.7974095,-6.215656,-10.389038
1231,-1.1718849,-3.4872398,-10.690832
1232,-0.30000013,-0.7537391,-1.3555341
1233,0.6655038,-1.9468603,-0.38763726
1234,3.7172499,-3.2309089,0.1585245
1235,4.996513,-2.955435,0.17288144
1236,7.758428,-4.4596233,-4.0887356
1237,5.9859447,-4.093222,-5.6578293
1238,2.9219356,-1.8918254,-4.8505507
1239,1.4919249,0.09661021,-4.3354955
1240,0.018544376,1.6079768,-3.9140596
1241,0.7396813,2.844169,-3.7893338
1242,0.8042875,3.941278,-3.8060834
1243,2.2058833,5.256433,-4.127021
1244,3.6550367,5.050351,-8.822337
1245,2.8716862,4.324728,-7.7754774
1246,0.95054877,2.3602204,-5.087739
1247,-3.9218364,-1.8077775,3.1480572
1248,-4.880162,-6.0957155,15.029618
1249,-8.973982,-12.357733,28.600212
1250,-15.0729885,-20.878574,24.266811
1251,-15.458531,-27.573992,22.379173
1252,-20.867805,-35.26572,14.871692
1253,-9.690333,-26.565416,7.062117
1254,-5.716154,-17.134405,2.3312075
1255,-3.5171502,-8.438588,-2.606083
1256,-2.4798615,-3.7746778,-2.1388843
1257,-5.8190455,-3.67388,-1.5951154
1258,-6.559325,-6.517451,-4.462614
1259,-8.703294,-11.778071,-8.67129
1260,-11.580364,-17.318651,-7.2341013
1261,-12.416357,-24.04039,2.7646074
1262,-13.264314,-28.951359,8.590532
1263,-4.2068815,-18.183657,-9.023633
1264,-2.7074788,-8.699705,-8.65454
1265,-2.077269,-5.178367,-5.389534
1266,-0.75972116,-3.7890346,-3.8730826
1267,-0.59700924,-3.429513,-3.4420755
1268,0.7492526,-3.0942187,-4.778766
1269,5.866005,-1.8631115,-12.38196
1270,5.0587263,-6.9990063,-10.865808
1271,-0.44117668,-10.994721,-6.8389864
1272,0.6200402,-12.412767,-4.2278185
1273,3.1304102,-12.144472,-4.453043
1274,5.8564334,-10.309476,-4.7979083
1275,6.2925253,-9.085547,-7.195816
1276,6.0601225,-7.961818,-8.968299
1277,4.4814577,-7.940283,-8.211569
1278,2.5914268,-8.012366,-6.1513486
1279,0.6128617,-8.297412,-4.191926
1280,-0.56590253,-8.2014,-2.548356
1281,-1.1790633,-8.316554,-1.7653049
1282,-1.5454643,-9.1669035,-1.4297116
1283,-1.8185452,-9.514162,-0.38763726
1284,-1.8595223,-10.422238,1.8400806
1285,-1.7778672,-10.8556385,3.39721
1286,-2.309672,-11.900105,13.472488
1287,-3.9170506,-11.030613,25.989044
1288,-5.215456,-10.079466,21.681965
1289,-5.471787,-12.07508,3.3780673
1290,-5.256134,-12.551551,-1.5687944
1291,-3.7157545,-12.544373,1.6268203
1292,-4.738686,-12.0894375,4.288237
1293,-4.788935,-12.230614,1.9166509
1294,-1.9097716,-12.474981,0.83389866
1295,-0.30239296,-11.813964,1.346561
1296,1.0366904,-11.500205,0.46749774
1297,2.6105695,-12.324233,-0.2943172
1298,4.1892343,-13.291831,0.6517451
1299,5.4206405,-14.108681,0.8961121
1300,6.02423,-14.563915,1.1787642
1301,5.3126645,-14.95903,2.2208385
1302,3.499204,-15.411872,4.3552365
1303,2.0021944,-15.15554,6.3508506
1304,1.5637096,-14.915959,7.9223366
1305,1.2523435,-15.268302,8.367701
1306,1.2810575,-16.166508,6.2548385
1307,1.6334006,-16.99293,0.0529412
1308,2.7352953,-15.651453,-4.7213383
1309,1.7291135,-13.900505,-6.2494545
1310,0.6559325,-13.045071,-6.853343
1311,-0.72382885,-12.865609,-5.3847485
1312,-3.3637104,-14.647664,-3.74387
1313,-5.608477,-17.261225,-2.9150562
1314,-8.806484,-21.01975,-3.923631
1315,-10.808978,-24.476482,-4.0719857
1316,-13.424932,-25.513771,-6.843772
1317,-15.041882,-22.047468,-2.3377876
1318,-15.415461,-17.012072,1.6890336
1319,-13.537395,-12.309876,0.73340017
1320,-10.713265,-8.8340025,-2.9270203
1321,-8.449356,-6.8575306,-5.2217374
1322,-0.017347964,-5.820242,-10.295419
1323,2.9195428,-2.3419752,-3.4085758
1324,3.784548,-2.9168508,-0.61046886
1325,6.680462,-3.2979078,-0.34217364
1326,7.98126,-4.505087,-0.37567315
1327,9.234201,-5.3365927,-2.05035
1328,7.8017983,-5.619245,-4.493721
1329,5.3847485,-3.8297126,-4.045665
1330,2.888436,-1.7240287,-4.469793
1331,1.6163517,-0.07836494,-4.65404
1332,0.99601245,2.1541386,-5.0973105
1333,0.5769694,3.7591243,-5.00399
1334,0.104985096,5.0336018,-5.6578293
1335,0.3493521,5.503193,-5.973981
1336,-1.1216356,5.4050875,-7.5263247
1337,-3.054737,3.8001015,-5.183452
1338,-1.8595223,1.3420744,-1.0250254
1339,-0.3167499,-1.6833507,3.9194436
1340,-2.3841486,-6.558129,11.9611225
1341,-7.349854,-11.801999,20.302202
1342,-15.034703,-20.245972,26.329124
1343,-16.467106,-27.11397,21.986153
1344,-14.737694,-29.796923,15.072689
1345,-8.86152,-24.186651,9.210872
1346,-7.1509504,-18.255442,5.962615
1347,-5.4646087,-11.483455,2.8390841
1348,-3.8931224,-7.2936225,5.241777
1349,-5.4837513,-7.636095,-1.2861422
1350,-7.2565336,-10.136894,-3.3029926
1351,-9.81476,-13.267902,-6.376573
1352,-10.99831,-15.558133,-8.460722
1353,-11.312069,-16.79642,-6.465108
1354,-11.271391,-20.193329,7.112665
1355,-8.501998,-17.560627,-6.477072
1356,-4.6381874,-12.007782,-9.679865
1357,-2.5301108,-7.693523,-7.885547
1358,-2.038984,-5.793921,-4.69741
1359,-0.72382885,-4.8765726,-4.0719857
1360,0.85483587,-4.234399,-5.0542397
1361,7.7994056,-2.1314068,-12.264711
1362,10.7889385,-4.7805605,-14.808581
1363,0.10737792,-12.915858,-7.085447
1364,0.052342996,-16.683956,-3.473182
1365,1.654936,-16.6026,-1.1279168
1366,4.0672,-15.440585,-1.4727824
1367,6.131907,-13.442878,-5.6099725
1368,3.7821553,-12.2736845,-6.309574
1369,1.1709876,-10.735997,-5.1475596
1370,0.9840483,-9.619745,-4.1461635
1371,1.3698909,-8.199007,-3.5641093
1372,0.7468598,-7.6217384,-2.5893333
1373,-1.1503495,-6.55095,-1.3914263
1374,-2.149353,-5.580661,0.14656039
1375,-2.2737796,-6.6924257,2.4556344
1376,-1.4449657,-8.122437,4.3935213
1377,-0.49860442,-8.761918,5.2250276
1378,-0.17527425,-8.735598,5.3350973
1379,0.31106696,-8.10808,3.2940195
1380,0.008973085,-7.8373914,1.5717853
1381,-1.5669997,-8.062616,3.6870406
1382,-5.476573,-9.372986,7.98455
1383,-7.4527454,-11.169397,7.934301
1384,-6.298208,-13.447663,10.87837
1385,-4.5951166,-14.978472,10.260124
1386,-4.58076,-15.057435,4.5876393
1387,-5.0069814,-14.324333,2.376671
1388,-7.579864,-14.319548,0.19680966
1389,-4.662116,-12.937394,0.6326025
1390,-1.7156538,-12.61885,2.2112672
1391,6.227919,-13.440485,1.8855443
1392,10.479965,-14.537594,0.21595225
1393,11.308779,-15.2324095,-0.2416751
1394,9.732507,-14.662021,2.4197419
1395,7.451848,-14.523237,3.5168512
1396,5.8061843,-14.106288,5.050052
1397,3.51386,-14.772389,7.2179494
1398,0.8644072,-15.4358,8.279166
1399,-0.13938192,-15.66581,4.8750772
1400,0.8428718,-16.106688,0.21355942
1401,2.030908,-15.268302,-4.982455
1402,0.19351953,-14.705391,-6.105885
1403,-0.43878385,-14.405689,-5.71765
1404,-1.9839491,-15.160326,-4.4721856
1405,-4.3005004,-17.179869,-4.5487556
1406,-6.087341,-19.460228,-3.6960137
1407,-6.753443,-20.267508,-3.786941
1408,-11.280962,-26.309086,-4.821837
1409,-14.0189495,-26.01447,-8.1012
1410,-15.916159,-21.74328,-1.7844474
1411,-16.182062,-16.106688,2.4388845
1412,-15.633507,-11.272588,1.8999012
1413,-13.360325,-8.04108,-3.1402807
1414,-8.866305,-6.6562343,-9.87159
1415,-4.072883,-6.285048,-9.94816
1416,-0.62811595,-1.7958134,0.72382885
1417,1.2140584,-3.2763724,-1.7362919
1418,4.2681975,-4.560421,-2.0336
1419,5.58096,-5.508876,0.3164508
1420,8.237591,-4.4691944,-2.9030921
1421,8.151449,-4.7231326,-3.2647073
1422,5.10419,-2.9219356,-3.7510486
1423,3.2623146,-1.8077775,-3.6696925
1424,1.925624,0.5709873,-3.7247276
1425,1.9830518,1.6800606,-3.7223346
1426,1.1494522,3.0478578,-3.952345
1427,0.72293156,4.9905305,-3.3436706
1428,1.1566306,6.4420767,-3.188137
1429,2.4765713,7.2302127,-6.2901325
1430,0.98644114,5.8672013,-8.640183
1431,-0.78394854,2.4248266,-5.265107
1432,-0.85812604,-1.3217354,0.6664011
1433,-1.3058829,-5.144868,7.220342
1434,-5.6180487,-10.201799,21.91676
1435,-9.72144,-16.624136,32.178978
1436,-14.078771,-27.123543,24.54707
1437,-12.869199,-31.715668,18.103199
1438,-10.037592,-28.05764,7.89123
1439,-7.704291,-21.374187,6.858727
1440,-7.9223366,-12.925429,5.2776694
1441,-8.487641,-6.8862443,8.34138
1442,-9.378967,-5.441877,-3.0442686
1443,-8.988339,-7.1880393,-11.656337
1444,-8.468498,-9.662816,-11.838191
1445,-10.4210415,-12.479767,-11.332707
1446,-15.154344,-18.334406,-2.481357
1447,-17.877974,-29.015966,24.185156
1448,-4.9160542,-22.490738,-11.56511
1449,0.8668,-11.365908,-13.840983
1450,-0.7262217,-7.1018977,-8.554042
1451,-1.5263218,-5.662316,-4.031308
1452,-0.73579293,-4.6824546,-3.3966117
1453,-0.49860442,-4.059723,-4.0528436
1454,2.4741786,-3.362514,-6.302396
1455,5.4876394,-2.8929226,-9.485747
1456,5.77747,-7.5212398,-11.414362
1457,0.21505493,-13.723137,-5.8304114
1458,2.3135605,-16.394125,-4.706981
1459,4.546064,-17.038393,-3.7773697
1460,6.2662044,-15.378372,-4.6564326
1461,5.602495,-13.1027975,-4.9510493
1462,2.6799614,-11.464013,-4.4482574
1463,1.6429719,-10.275977,-3.3702908
1464,1.8678972,-9.085547,-2.3449662
1465,0.933799,-8.04108,-1.5520446
1466,-0.5204389,-6.117251,-2.1340988
1467,-1.4880366,-7.1617184,1.1356934
1468,-1.3875381,-8.83161,3.9074793
1469,0.42592242,-9.911968,8.2456665
1470,1.9998015,-8.83161,8.652746
1471,2.414059,-6.9798636,5.3015976
1472,0.663111,-6.4887366,1.4159528
1473,-0.9514461,-5.8489556,-0.5195416
1474,-4.64058,-5.729315,4.8846483
1475,-7.251748,-7.264909,4.525426
1476,-8.641081,-9.365807,5.510072
1477,-7.7234335,-11.227124,15.693327
1478,-5.9820566,-12.71217,15.983158
1479,-5.308776,-16.477875,3.3493536
1480,-6.3053865,-18.137896,-0.15792629
1481,-5.3306108,-16.528124,0.5057829
1482,-2.9036903,-14.309977,0.762114
1483,-0.22313072,-12.783954,1.4183456
1484,4.599005,-12.546765,1.2125629
1485,7.978867,-13.9986105,0.3595216
1486,10.680962,-14.520844,0.60388863
1487,9.653245,-14.4490595,2.6928227
1488,7.303493,-14.5926285,4.091727
1489,2.998805,-14.772389,6.702894
1490,1.8726828,-14.374583,7.7497544
1491,-1.8523438,-13.953147,10.547563
1492,-2.0461624,-15.287445,6.070591
1493,0.18634106,-15.558133,0.119940236
1494,3.2527432,-15.8025,-5.159524
1495,4.929514,-14.357833,-7.614859
1496,4.1198425,-13.914862,-7.313064
1497,0.052342996,-15.165112,-6.2327046
1498,-2.0748763,-16.425232,-4.9342995
1499,-5.1460643,-19.996819,-4.371388
1500,-7.917551,-23.609383,-5.6985073
1501,-9.050552,-27.173792,-3.3221352
1502,-12.119348,-27.609882,-4.5272202
1503,-15.645471,-23.19004,-2.5749762
1504,-16.8697,-16.566708,0.60388863
1505,-14.663218,-11.143076,-1.0465608
1506,-11.827125,-7.4587274,-3.406183
1507,-3.8093736,-7.166504,-8.213962
1508,-0.70229346,-4.325625,-7.818548
1509,-1.3229318,-1.355235,-1.4751751
1510,1.6091732,-2.586342,-1.5975082
1511,2.5962126,-3.35055,-1.3076776
1512,5.5929236,-3.554239,-1.1279168
1513,7.4183483,-4.9674997,-3.865904
1514,5.6383877,-4.708776,-5.0662036
1515,5.037191,-3.9684963,-5.0255256
1516,1.5397813,-1.1084751,-4.465007
1517,0.79471624,0.75523466,-4.6755753
1518,0.69182485,1.9172492,-4.88405
1519,0.34456646,3.1004999,-4.750052
1520,-0.19441684,3.9317067,-4.740481
1521,0.9840483,4.945067,-7.1359954
1522,0.12412767,4.909175,-7.9217386
1523,-1.468894,4.286144,-7.2149587
1524,-1.5071791,1.5361922,-2.675475
1525,-1.8113668,-2.1023939,3.5359936
1526,-2.0413768,-6.773782,11.680862
1527,-7.0959153,-14.2023,24.671497
1528,-13.726727,-21.736101,30.629026
1529,-19.095024,-32.79124,24.407988
1530,-17.094624,-33.699318,14.874084
1531,-10.135697,-25.118357,11.177772
1532,-4.0561333,-13.236795,4.453641
1533,-3.5339,-8.620742,3.3349965
1534,-2.635395,-3.9230328,5.131408
1535,-5.4167523,-5.1999025,-1.5568303
1536,-5.0718865,-7.4419775,-6.4363937
1537,-5.47418,-12.046367,-11.653944
1538,-7.9486575,-14.705391,-12.949657
1539,-12.262917,-18.86621,-2.5268207
1540,-13.249956,-24.275187,11.8028965
1541,-8.485249,-19.558634,-5.3703914
1542,-3.6511483,-10.21137,-8.458329
1543,-3.4187453,-7.9450684,-7.658229
1544,-2.0748763,-5.6240306,-4.2038903
1545,-0.43639103,-4.8287163,-4.4554358
1546,2.277668,-3.6978083,-6.8916283
1547,8.872586,-3.2596226,-13.069597
1548,1.6501503,-9.741779,-9.323035
1549,-1.3803595,-13.93879,-3.7654054
1550,-0.14416756,-15.201004,-3.4229329
1551,2.888436,-14.908781,-2.8408787
1552,6.9849486,-13.732708,-5.959624
1553,6.927222,-12.163615,-6.640083
1554,4.1294136,-10.659127,-5.7729836
1555,3.2766714,-9.233903,-4.9606204
1556,3.05384,-7.6600237,-3.5234313
1557,2.8166513,-6.6562343,-3.2479577
1558,0.60329044,-6.050252,-2.6084757
1559,-1.2029916,-4.8765726,-2.141277
1560,-1.7802601,-5.99761,0.50099725
1561,-1.5047864,-8.306983,2.542075
1562,-0.8222337,-9.097511,3.3661032
1563,-0.4459623,-9.075976,3.5766716
1564,-0.77677006,-8.915359,3.6152558
1565,-1.4114662,-8.623135,3.9361932
1566,-7.3546395,-9.475877,13.5685005
1567,-10.075877,-10.038788,12.562319
1568,-10.212567,-10.639985,8.892327
1569,-7.7739816,-12.522838,4.8008995
1570,-4.932804,-14.4897375,5.3566327
1571,-4.6429734,-15.177075,3.4426737
1572,-3.7830527,-13.490734,-1.8203398
1573,-2.975774,-12.3912325,-0.38763726
1574,-1.1599208,-11.928819,1.9286151
1575,4.134199,-13.208082,2.5325036
1576,8.163414,-14.293227,1.657927
1577,10.462916,-14.781961,-0.26799613
1578,10.870295,-14.417654,-1.7410775
1579,10.281061,-13.7063875,-1.2140584
1580,6.910472,-12.774383,2.484348
1581,4.301697,-13.804493,4.9974103
1582,0.8042875,-15.0526495,7.2179494
1583,-2.012663,-15.883856,9.249456
1584,-4.2020955,-16.161722,8.652746
1585,-4.9112687,-16.221542,4.700401
1586,-1.2819548,-16.44916,-0.8117651
1587,3.674179,-15.5342045,-6.2087765
1588,3.5353954,-14.276477,-9.351749
1589,1.6019948,-13.751851,-8.0677
1590,-1.1599208,-14.149359,-5.145167
1591,-3.6176488,-15.594026,-3.6314075
1592,-4.8825545,-16.715063,-3.7031922
1593,-5.5076795,-17.654245,-3.6984065
1594,-9.306884,-23.281267,-3.3317065
1595,-12.174382,-24.871897,-4.1007
1596,-15.33889,-22.392334,-2.141277
1597,-15.33889,-22.392334,-2.141277
1598,-14.277674,-13.088441,0.58235323
1599,-11.633006,-8.853145,-1.7171494
1600,-7.2230344,-7.3486576,-5.9500527
1601,-0.90358967,-7.413264,-15.496219
1602,0.28923243,-3.1636107,-3.109174
1603,0.32303107,-2.9793632,-0.6583253
1604,3.460919,-3.4872398,-0.94337034
1605,5.0563335,-3.9373896,-0.25124636
1606,5.875576,-4.165007,-0.19381863
1607,6.4360948,-4.4548373,-3.257529
1608,5.0395837,-3.4247274,-4.388138
1609,3.161517,-1.3193426,-4.4315076
1610,1.7458632,0.35533416,-4.2134614
1611,1.0510473,2.1254246,-4.342674
1612,1.0438689,2.3697917,-4.4315076
1613,1.4871392,3.6323047,-5.36082
1614,2.3255246,4.4898324,-6.0580287
1615,2.6392834,4.7629137,-8.129914
1616,0.061914288,4.307679,-7.509575
1617,-0.8964112,2.449054,-3.2790644
1618,-1.7060826,-0.17168503,0.6158527
1619,-2.187638,-5.7556357,10.808679
1620,-6.288637,-12.551551,23.718256
1621,-14.227425,-21.942184,27.500711
1622,-15.841982,-28.098618,21.186052
1623,-14.378172,-31.171898,17.71975
1624,-10.016056,-25.805994,11.228022
1625,-7.5296144,-17.055143,6.873084
1626,-5.122136,-9.717851,2.6712873
1627,-2.5301108,-3.3984063,4.5134616
1628,-1.5864414,-1.5924234,4.9325047
1629,-2.0198414,-1.1467602,-4.7715874
1630,-4.2598224,-3.499204,-10.583156
1631,-5.994021,-5.9449677,-11.122139
1632,-9.786046,-11.202896,-13.951054
1633,-15.86591,-19.51317,-5.7391853
1634,-21.569502,-32.242687,15.103796
1635,-15.458531,-33.234512,-1.7533408
1636,-2.7649066,-16.2694,-11.109876
1637,-2.4655046,-8.515159,-7.648658
1638,-1.5167505,-6.3711896,-4.726124
1639,0.17437695,-4.8526444,-3.7630126
1640,1.1327025,-4.1817565,-3.7989051
1641,4.7282176,-3.8464625,-6.8171515
1642,4.7282176,-3.8464625,-6.8171515
1643,2.9796624,-10.7431755,-4.4482574
1644,-0.34546378,-14.348262,-2.8432715
1645,0.44027936,-14.082359,-1.2765709
1646,6.3164535,-11.655738,-3.4612179
1647,7.1428747,-10.668699,-4.817051
1648,5.7487564,-10.376475,-3.8347974
1649,5.7583275,-8.5681,-2.5845475
1650,5.590531,-7.636095,-3.4325042
1651,4.275376,-6.538986,-6.6281185
1652,1.2260225,-6.7642107,-3.935595
1653,-0.328714,-7.7608213,-1.9782661
1654,-1.1742777,-9.535697,1.8999012
1655,0.20548365,-9.466306,4.848756
1656,1.9782661,-7.899605,5.7927246
1657,1.3217354,-6.416952,3.2820554
1658,-0.7118647,-6.632306,1.4617156
1659,-1.9791634,-6.6538415,-0.30867413
1660,-3.045166,-7.075577,-1.2191432
1661,-6.326922,-7.4805617,6.5374904
1662,-8.23131,-8.476873,7.8000035
1663,-8.49482,-10.352547,7.850253
1664,-8.444571,-15.246767,12.768401
1665,-5.6036916,-17.143976,8.041978
1666,-4.7195435,-17.239689,3.0472596
1667,-4.194917,-16.073189,0.32123643
1668,-3.5769708,-14.923138,-0.4621139
1669,-0.20398813,-13.186546,2.0461624
1670,4.759324,-12.367304,1.6651055
1671,6.908079,-12.743276,0.53688955
1672,8.1586275,-13.483556,0.16570297
1673,8.673683,-13.529019,1.0495518
1674,7.590931,-13.641781,2.1658037
1675,6.91765,-14.12543,2.5034907
1676,5.990731,-14.286049,4.640281
1677,3.6861434,-14.681164,7.2011995
1678,-0.017347964,-15.289838,9.440882
1679,-2.4655046,-15.883856,5.299205
1680,-3.5386856,-16.042082,-1.2140584
1681,-0.3167499,-14.537594,-3.8925242
1682,1.4129617,-13.543376,-6.9801626
1683,1.5421742,-13.8499565,-6.6089764
1684,-1.1647065,-15.021543,-4.6612186
1685,-4.2741795,-16.940287,-3.6864424
1686,-6.5090756,-19.60649,-2.929413
1687,-9.120243,-23.659632,-2.778366
1688,-9.613763,-25.23112,-3.2479577
1689,-11.046166,-24.521946,-5.324928
1690,-13.796118,-20.109581,-0.9385847
1691,-15.86591,-15.256338,-0.8069794
1692,-15.291034,-11.564811,-1.884946
1693,-11.915659,-8.544171,-2.2489543
1694,-5.2202415,-7.04447,-5.1068816
1695,1.1398809,-6.7354965,-16.253248
1696,1.3698909,-2.7996025,-4.2780676
1697,2.1337996,-2.3060827,-0.34456646
1698,3.37717,-3.281158,1.087837
1699,6.853044,-3.6547375,-0.33020952
1700,8.374281,-5.3796635,-3.0011978
1701,7.3106713,-4.5218368,-4.5942197
1702,4.5340996,-2.725425,-3.882654
1703,2.1747768,-0.8353942,-3.8563328
1704,0.8234301,0.6260222,-3.8324046
1705,1.0582259,2.3769703,-4.496114
1706,0.3062813,3.3616166,-4.65404
1707,0.7636095,4.8418765,-4.0217366
1708,2.874079,4.985745,-7.533503
1709,3.0873394,4.9642096,-10.6357975
1710,0.6200402,3.6131623,-7.140781
1711,-2.8151557,-0.47826543,-0.45732823
1712,-4.451248,-3.5973098,6.046663
1713,-5.2441697,-6.9678993,14.021044
1714,-7.701898,-17.033607,32.36113
1715,-14.866906,-26.071896,25.888546
1716,-16.622938,-33.09782,22.019651
1717,-11.874981,-30.939495,9.762118
1718,-8.221739,-23.36023,8.044371
1719,-8.020741,-10.939387,5.4355955
1720,-8.133204,-4.7781677,4.5014977
1721,-7.007381,-2.2175484,1.0040882
1722,-6.4755764,-2.1314068,-7.411469
1723,-7.6516485,-5.4179487,-12.420245
1724,-10.605289,-9.6580305,-11.586645
1725,-15.726827,-14.827425,-8.04138
1726,-17.087446,-26.426332,21.952652
1727,-7.8457665,-33.66791,-6.7908306
1728,0.059521463,-25.161726,-20.711077
1729,2.926721,-10.620842,-10.650154
1730,0.08344969,-6.9942207,-7.0543404
1731,0.37328035,-4.751847,-3.786941
1732,0.8234301,-3.6762729,-3.0035906
1733,2.7041886,-3.0702906,-5.535795
1734,10.652248,-1.3911272,-13.740186
1735,6.1342998,-7.50449,-11.498111
1736,-2.3192434,-14.03211,-5.3440704
1737,-0.06999006,-16.430017,-3.611966
1738,2.3973093,-15.869499,-0.94337034
1739,5.169095,-14.403296,-2.766402
1740,6.1031933,-12.0176525,-5.569295
1741,4.955835,-10.76471,-6.110671
1742,2.6991038,-9.573982,-5.3967123
1743,1.9088743,-8.362018,-4.2373896
1744,1.0055838,-7.5499535,-3.3583267
1745,-0.19680966,-7.0636125,-2.062314
1746,-1.1766706,-6.277869,-1.274178
1747,-2.3144577,-5.942575,0.5775676
1748,-2.3336003,-7.303194,2.242374
1749,-1.9336998,-9.260223,3.7923248
1750,-0.86291164,-10.220942,4.4225345
1751,-0.06999006,-9.763314,4.034299
1752,-0.39810586,-8.773883,4.154239
1753,-3.723232,-9.0951185,10.928619
1754,-7.7572317,-9.92154,10.897512
1755,-10.071092,-11.090434,7.5125656
1756,-9.436396,-12.350554,7.7736826
1757,-6.02752,-14.769997,6.192625
1758,-5.8935223,-15.22254,6.762715
1759,-6.1570315,-15.543776,1.1213365
1760,-3.7181473,-14.115859,1.1452647
1761,-0.024526432,-13.289438,4.1084766
1762,4.3929234,-13.315759,3.4689946
1763,8.038688,-13.814064,2.065305
1764,10.525429,-14.765211,-0.0044865427
1765,10.623534,-14.113466,0.3044867
1766,8.259127,-13.013964,2.3958137
1767,5.53071,-11.763715,4.0677986
1768,3.7196429,-11.873784,6.020342
1769,0.102592275,-13.1027975,7.9223366
1770,-2.3889344,-14.827425,6.8300133
1771,-3.5697923,-14.72214,3.844967
1772,-0.54436713,-15.653846,-0.60807604
1773,3.28385,-16.010675,-5.466104
1774,3.9161534,-15.778572,-7.559824
1775,2.0045872,-15.97239,-7.3322067
1776,-0.6975078,-16.288542,-5.645865
1777,-2.8630123,-17.474485,-4.666004
1778,-5.1675997,-19.735703,-4.1557345
1779,-7.541579,-22.45724,-3.9882371
1780,-9.39811,-24.82374,-4.0217366
1781,-10.593325,-24.43341,-4.9848475
1782,-10.593325,-24.43341,-4.9848475
1783,-13.652549,-12.935001,1.5981064
1784,-12.93859,-8.917751,-0.13130614
1785,-11.872588,-7.346265,-0.7399804
1786,-7.6013994,-5.029713,-2.9341989
1787,-2.7385855,-4.7279186,-10.889736
1788,-0.014955142,-3.7220356,-13.239488
1789,-0.081954174,0.0029910284,-1.5831513
1790,2.457429,-1.7407784,-0.59611195
1791,3.6789649,-2.8689942,0.44117668
1792,5.101797,-3.6355948,-1.1422737
1793,5.2193446,-4.2610188,-2.4143581
1794,5.2983074,-4.284947,-3.5401812
1795,4.316353,-3.6140594,-4.505685
1796,2.5674987,-2.6751757,-4.6229334
1797,1.0271192,-1.7838492,-4.2684965
1798,0.92183495,-0.5982057,-4.380959
1799,0.45942193,0.48215377,-4.805087
1800,0.13130614,0.91346,-4.249354
1801,0.27966115,2.0033908,-5.595616
1802,-0.27846473,2.4152553,-5.363213
1803,-0.87248296,1.4356936,-3.0705895
1804,-2.774478,-2.30369,2.743072
1805,-3.6655052,-6.4002023,11.239985
1806,-5.510072,-12.939787,24.796223
1807,-11.24507,-20.672493,25.756641
1808,-11.414961,-24.42384,25.255943
1809,-10.899905,-25.846672,16.967505
1810,-7.7572317,-20.880966,9.795618
1811,-7.09113,-14.149359,5.6871414
1812,-6.399006,-8.251649,3.1767712
1813,-4.5999026,-4.24397,5.1218367
1814,-3.723232,-3.0702906,-3.6792638
1815,-2.8558338,-2.2677977,-11.3351
1816,-5.7640104,-4.107579,-11.81187
1817,-11.29532,-9.856635,-11.2298155
1818,-16.905592,-17.891134,-4.29721
1819,-24.020052,-37.453056,30.902407
1820,-10.528719,-33.730423,-15.033806
1821,1.2690933,-14.966507,-12.528221
1822,-1.4330016,-9.003893,-7.986345
1823,-1.4377873,-7.516454,-6.00748
1824,0.38763726,-5.360521,-3.8276188
1825,1.8343977,-4.761418,-4.0073795
1826,6.4866433,-4.807181,-8.920443
1827,8.877372,-7.0612197,-16.825731
1828,4.31396,-12.544373,-8.137093
1829,-2.2713869,-16.35584,-2.5869403
1830,1.5876378,-14.362618,-2.0599213
1831,4.107878,-12.036796,-5.159524
1832,4.776074,-10.807781,-5.415855
1833,5.044369,-9.775279,-5.2145586
1834,4.479065,-8.362018,-4.886443
1835,3.8300118,-7.585846,-4.5918264
1836,2.7041886,-7.2385874,-3.6840496
1837,1.2164512,-7.01097,-2.7065816
1838,-0.06999006,-6.387939,-1.6166508
1839,-0.7286145,-6.4528446,-0.4668995
1840,-0.5395815,-8.160722,1.4760724
1841,0.3062813,-8.862716,1.8807586
1842,0.8644072,-8.934501,1.5981064
1843,0.8380861,-9.12144,1.372882
1844,-0.46271208,-9.056535,2.254338
1845,-4.115954,-8.965608,12.322738
1846,-9.194421,-9.229117,22.896622
1847,-9.443574,-10.58495,15.195022
1848,-7.5056863,-12.225828,8.018049
1849,-5.340182,-14.513666,4.1662035
1850,-2.6955147,-13.953147,1.998306
1851,-1.7060826,-12.779168,-1.0561321
1852,-3.2392836,-13.220046,-1.4656038
1853,-0.97537434,-13.006785,-0.030807592
1854,2.0691934,-13.505091,1.4736797
1855,4.814359,-13.438092,1.4928222
1856,8.21127,-13.540983,1.5191432
1857,10.733903,-13.359129,1.3369896
1858,8.084451,-13.497912,2.2375882
1859,6.558428,-14.887245,4.3265224
1860,5.1212387,-15.833607,4.048656
1861,4.127021,-16.461124,4.86072
1862,2.225026,-16.810776,5.931508
1863,1.2834502,-17.89592,5.4092746
1864,1.422533,-17.65903,1.4904294
1865,0.44027936,-15.517455,-2.6491537
1866,-2.5061827,-14.52563,-4.699803
1867,-2.065305,-13.42852,-4.970491
1868,-3.1337004,-13.540983,-4.2589254
1869,-4.779364,-14.477774,-3.4683964
1870,-5.879165,-15.615561,-3.2120652
1871,-6.832406,-17.179869,-3.8754754
1872,-8.660223,-19.587347,-5.3847485
1873,-10.339387,-21.405594,-5.6099725
1874,-13.043875,-21.369402,-4.0911283
1875,-15.149558,-19.141684,2.3838496
1876,-14.402101,-15.613168,2.172982
1877,-11.987443,-11.212468,-0.1794617
1878,-8.588439,-8.785847,-1.8729819
1879,-4.415356,-8.1344,-6.2494545
1880,1.2284154,-7.8110704,-12.865909
1881,5.22413,-2.9913275,-2.6826532
1882,4.8263235,-4.38066,-1.0872388
1883,6.5105715,-4.6704907,0.89371926
1884,8.472386,-5.575875,1.3274183
1885,7.066304,-6.30419,-3.0514472
1886,5.8301125,-4.9603214,-3.9954157
1887,2.986841,-2.507379,-3.9714873
1888,1.4297116,-0.15732808,-4.009773
1889,1.0845468,1.4333007,-4.153342
1890,1.3600205,2.4825535,-4.6950173
1891,0.770788,3.9006,-5.152345
1892,0.55752766,4.9929237,-5.602794
1893,1.1398809,5.804988,-4.747659
1894,1.015155,5.323432,-5.7056856
1895,-0.39332023,4.0588255,-6.326324
1896,-1.049851,1.3926228,-3.2790644
1897,-0.8365906,-1.4318053,0.7956135
1898,-0.9729815,-5.168796,7.3785677
1899,-5.8935223,-10.83171,18.11277
1900,-12.809079,-19.596918,27.143581
1901,-17.77269,-27.015865,24.64757
1902,-18.115164,-29.004002,23.96741
1903,-15.7076845,-33.35894,13.92533
1904,-8.513962,-19.414764,7.8717885
1905,-7.21107,-12.15165,3.7468612
1906,-6.178567,-7.5068827,2.9563324
1907,-6.128019,-7.0875406,2.1370897
1908,-9.306884,-10.268799,-1.0728818
1909,-9.788439,-14.8944235,-1.4536397
1910,-10.169497,-18.495024,-5.118846
1911,-8.837591,-19.211075,-2.8408787
1912,-6.0011992,-18.691235,3.0690942
1913,-4.1781673,-14.673985,-4.750052
1914,-2.7314072,-9.739387,-9.128918
1915,-2.3001008,-5.8226347,-6.180063
1916,-2.105983,-5.130511,-3.964309
1917,-1.6079768,-4.651348,-3.1331022
1918,1.8224336,-3.4920256,-4.4434714
1919,7.6603227,-1.9157536,-12.072987
1920,9.638887,-1.6881363,-16.74916
1921,4.6564326,-6.6418777,-13.613366
1922,-0.78394854,-12.7241335,-7.353742
1923,-0.20398813,-17.79303,-1.6573287
1924,1.8894325,-18.008682,0.34277186
1925,3.6263227,-16.144972,-2.4382863
1926,4.725825,-13.23201,-6.6831536
1927,2.9315069,-11.729916,-6.014659
1928,2.9578278,-10.419846,-5.027919
1929,1.5828521,-9.542876,-3.7127635
1930,0.6056832,-8.690134,-2.766402
1931,-0.017347964,-8.10808,-2.1005993
1932,-1.1455638,-6.2419767,-2.14367
1933,-2.3216362,-6.2659054,0.9418748
1934,-2.9805596,-7.6624165,3.4809587
1935,-2.3742783,-9.380164,6.5521464
1936,-1.1072787,-9.61496,7.7760754
1937,-0.49142596,-9.530911,8.020442
1938,1.6091732,-7.789535,5.6033926
1939,-0.8006983,-7.6313095,6.15434
1940,-6.013163,-8.82443,8.693723
1941,-8.181061,-9.978968,3.3059835
1942,-8.327322,-11.085649,3.203092
1943,-6.099305,-11.708381,6.702894
1944,-2.4942186,-13.699209,8.715259
1945,-3.4402807,-14.777175,4.688437
1946,-3.3373895,-13.581661,2.1825533
1947,-3.7181473,-13.131512,0.8315059
1948,-0.69272214,-11.643774,1.6938193
1949,3.4896326,-11.111969,0.66161543
1950,7.3178496,-12.206686,0.04336991
1951,9.813863,-13.55534,-0.9194421
1952,10.542178,-13.610375,-0.5267201
1953,8.575278,-13.564912,1.2675978
1954,5.6407804,-14.115859,3.0329027
1955,3.9161534,-13.89572,4.542176
1956,2.0165513,-14.144573,6.530312
1957,-1.0040882,-14.673985,7.6106715
1958,-1.8619151,-16.07558,5.3183475
1959,-1.183849,-16.290936,0.112761766
1960,-0.34546378,-16.307983,-2.4358935
1961,1.7697915,-15.739987,-5.423033
1962,1.5182459,-15.941283,-8.733803
1963,-1.9648064,-16.247864,-7.648658
1964,-3.8117664,-17.12244,-4.8792644
1965,-5.8935223,-18.157038,-2.9653056
1966,-7.7500534,-19.584953,-2.9341989
1967,-10.001699,-21.07957,-3.9116669
1968,-11.324033,-22.569702,-4.4889355
1969,-12.770794,-20.861824,-3.923631
1970,-14.572289,-16.317554,-1.1805589
1971,-13.321741,-12.18515,1.8927227
1972,-11.381461,-9.483055,1.2675978
1973,-9.077172,-7.947461,-1.5544374
1974,-6.5234327,-6.922137,-4.2589254
1975,-0.8964112,-6.517451,-15.033806
1976,2.414059,-3.5183465,-5.2145586
1977,1.585245,-3.5207393,-0.5626124
1978,3.6430724,-4.8598228,1.3082758
1979,4.074379,-5.688637,0.50099725
1980,6.869794,-7.281658,-0.51236314
1981,7.3657064,-7.6863446,-4.086343
1982,4.9510493,-6.740282,-5.13081
1983,2.1122642,-4.3088756,-4.1727834
1984,-0.23509483,-2.5049863,-3.60718
1985,-0.695115,-0.8449655,-3.9954157
1986,0.29162526,0.2641078,-4.4144588
1987,0.6966105,1.1697912,-5.253143
1988,1.0725827,2.1302104,-4.618148
1989,0.8883354,4.080361,-4.738088
1990,1.3169497,5.328218,-6.326324
1991,-0.40767714,4.2574296,-5.102096
1992,-0.8892327,1.6513467,-2.2752752
1993,-1.454537,-1.2424731,0.99930257
1994,-3.449852,-5.7053866,9.529716
1995,-5.6970115,-10.309476,23.56721
1996,-9.934701,-16.485052,27.649065
1997,-14.354244,-23.04647,21.562323
1998,-13.90888,-27.945177,21.303598
1999,-10.066306,-26.699413,12.332309
2000,-6.2431736,-19.534704,8.530712
