,ax,ay,az
501,-1.7252251,-16.207186,4.604389
502,-1.0088738,-17.095821,2.6377878
503,-1.3396816,-14.841782,1.4518452
504,-1.320539,-11.624632,-2.457429
505,1.3600205,-10.966007,-2.5435705
506,4.011866,-12.791133,0.17048861
507,5.959624,-15.371194,1.0830513
508,7.219445,-16.59542,1.483251
509,6.1438713,-15.922141,2.3455644
510,3.4537404,-14.685949,4.4967117
511,-0.0029910284,-14.171193,7.6181493
512,-1.2364911,-13.754244,9.040981
513,-1.2891332,-14.698213,10.104591
514,-0.5180461,-15.809678,8.717651
515,2.8262227,-16.315163,2.714358
516,4.464708,-16.113867,-2.117349
517,4.9055853,-14.997614,-7.124031
518,2.80708,-14.03211,-7.059126
519,0.6415756,-13.893327,-5.2555356
520,-1.1886346,-14.712569,-4.6731825
521,-3.301497,-16.58585,-5.49751
522,-5.960521,-19.225433,-6.6424756
523,-7.2230344,-21.47977,-6.39093
524,-8.370393,-22.080967,-3.935595
525,-9.735797,-21.553947,0.6999006
526,-11.642578,-18.799212,1.6148561
527,-14.644074,-16.506588,-2.0934207
528,-17.161922,-13.260724,-3.6457644
529,-15.190236,-10.477273,-4.699803
530,-6.6000032,-9.404092,-6.4028945
531,-3.3278182,-8.033902,-4.77398
532,-1.495215,-5.6001024,-1.1111671
533,3.5736806,-5.595317,-2.2274187
534,5.844469,-5.655137,-3.9116669
535,6.7669024,-5.535197,-3.2455647
536,7.056733,-5.619245,-5.5573306
537,5.6817575,-3.2117662,-3.624229
538,3.4633117,-1.0316057,-3.2455647
539,1.4297116,0.78873414,-3.611966
540,2.0955145,1.8547367,-3.786941
541,2.2441685,2.8058836,-3.5593238
542,3.8587255,4.2909293,-3.7606199
543,4.644469,4.2837505,-4.6803613
544,3.4561331,3.8192441,-7.3513494
545,0.5455636,3.8072798,-7.248458
546,-2.5109682,2.5136602,-4.3115673
547,-5.6994042,-0.4423731,3.4139597
548,-7.7739816,-5.4586267,14.893228
549,-13.113565,-13.002,27.950861
550,-15.137594,-19.213469,25.462027
551,-15.868302,-21.709782,22.685753
552,-11.882159,-20.947966,11.304591
553,-8.185846,-18.595522,7.970193
554,-4.932804,-13.670495,5.529215
555,-5.4311094,-11.447264,4.247559
556,-5.840581,-9.98136,2.4771698
557,-3.6750765,-7.449156,-9.246465
558,-8.528319,-7.940283,-7.756335
559,-16.186848,-11.227124,-0.47168517
560,-15.463317,-14.858531,10.557134
561,-10.049556,-17.92972,8.58814
562,-2.6306095,-15.129219,-16.67947
563,2.0500507,-8.747561,-14.753546
564,1.8320048,-6.893423,-10.669297
565,-2.4918256,-7.650452,-8.292925
566,-2.4774687,-6.9391856,-4.354638
567,-1.8041883,-6.404988,-4.45065
568,-1.2460624,-6.2060847,-5.823233
569,-0.6903293,-6.2180486,-5.7631135
570,1.1279168,-8.706883,-5.8160543
571,2.3255246,-13.509876,-4.682754
572,1.3770695,-17.855242,-4.793123
573,0.7013961,-19.82932,-3.4444683
574,-0.010169496,-19.822144,-3.7223346
575,3.6263227,-15.670595,-6.170491
576,3.1567314,-13.13869,-5.183452
577,3.3484561,-10.644771,-4.0384865
578,3.5401812,-8.584849,-3.1259236
579,2.9410782,-6.828817,-3.1929228
580,2.4789643,-3.254837,-5.6817575
581,1.695614,-5.836992,1.317847
582,1.7961125,-8.278269,5.799903
583,2.7014968,-9.286545,9.239884
584,4.2634115,-8.850752,10.98844
585,5.31745,-7.205088,6.8105717
586,4.2011986,-6.7426753,-0.2847459
587,0.9194421,-7.7799635,-4.4410787
588,-2.6955147,-9.650852,-3.676871
589,-9.776475,-11.054542,7.1748786
590,-14.447864,-12.096616,14.457135
591,-11.90848,-11.322837,12.7037945
592,-5.4933224,-10.858031,6.7292156
593,-4.307679,-14.264513,3.8617167
594,-3.5099716,-16.233507,4.8942194
595,-3.3756745,-16.6026,2.7454648
596,-3.2799616,-14.880067,0.51535416
597,-1.361217,-13.320544,-1.3914263
598,2.5555346,-12.851253,-2.7089744
599,5.5331035,-14.195121,-1.5807585
600,8.501101,-15.766607,-0.3924229
601,9.41157,-16.070795,0.8578269
602,5.8707905,-16.161722,3.409174
603,1.7362919,-15.800107,7.2753773
604,-0.9299107,-15.797714,10.130912
605,-1.3420744,-15.824036,10.157233
606,0.8066803,-16.628922,9.139087
607,4.2777686,-17.227724,6.4274206
608,6.6684976,-16.566708,-0.31345975
609,7.279565,-15.165112,-4.2517467
610,5.4924254,-13.26551,-6.0170517
611,2.3638096,-12.832109,-5.2483573
612,0.03798606,-13.560126,-4.7428737
613,-2.01027,-15.138791,-5.22413
614,-4.322036,-17.64946,-6.5512495
615,-6.267102,-19.95614,-7.4976106
616,-7.1629148,-20.116758,-7.236494
617,-7.4479594,-19.182362,-6.1178493
618,-8.310572,-17.517555,-0.07866404
619,-11.347961,-15.383158,1.5263218
620,-14.605789,-12.903894,-4.0121655
621,-17.868402,-9.418449,-8.307282
622,-10.921441,-7.9283185,-6.1274204
623,-6.3628144,-5.796314,-3.0729825
624,-2.295315,-3.7073796,-1.1039885
625,0.8644072,-3.5566318,-0.907478
626,2.498107,-3.3194432,-0.06909275
627,7.396813,-3.712165,-2.5316064
628,8.855537,-5.5280185,-5.5453663
629,6.802795,-4.8646083,-4.232604
630,2.0285153,-2.4427729,-1.8370895
631,0.052342996,-0.91196454,-1.9351953
632,-0.3502494,0.027218357,-2.5630121
633,0.4354937,0.7289136,-3.5569308
634,1.0438689,0.7743772,-4.0145583
635,3.432205,0.6762715,-4.1174498
636,5.135596,0.5395815,-6.0098734
637,3.5066817,0.08225328,-6.88445
638,-0.9418748,-0.2219343,-4.0911283
639,-4.0609193,-1.7623138,2.1969104
640,-5.649155,-5.729315,12.18874
641,-8.791828,-12.704991,24.856043
642,-13.211671,-19.551455,24.312275
643,-14.375779,-22.766212,21.344276
644,-14.045271,-21.954147,13.369597
645,-9.136993,-17.77628,6.889834
646,-5.2537413,-13.466805,5.0548377
647,-2.2666013,-7.964211,2.2519453
648,-2.2235305,-5.302794,2.0413768
649,0.16959131,-3.336193,-2.4861426
650,-0.88683987,-2.9048867,-11.493325
651,-5.960521,-4.9603214,-11.831013
652,-14.109877,-11.15504,-5.011169
653,-19.574186,-21.664316,8.451749
654,-21.452253,-31.078579,4.3935213
655,-6.0658054,-20.190937,-14.921343
656,1.4201403,-8.908179,-13.874483
657,-2.137389,-7.4587274,-7.3178496
658,-3.246462,-7.1473613,-2.9940193
659,-1.5047864,-5.9712887,-1.8275183
660,-0.5300102,-5.0344987,-3.4013975
661,1.2954143,-4.773382,-6.3215384
662,2.9243283,-7.085148,-8.6090765
663,0.7636095,-12.714562,-7.7850485
664,-3.1962128,-16.748562,-2.5028925
665,-1.7419748,-17.531912,-1.5448661
666,1.7315062,-16.312769,-4.150949
667,5.7870417,-14.26212,-8.065308
668,5.9955163,-12.67867,-7.006484
669,7.1620173,-10.563415,-6.0604215
670,6.798009,-8.493623,-5.2289157
671,6.244669,-7.6145597,-4.4985065
672,5.5713882,-5.8250275,-3.7630126
673,1.6115661,-3.5877385,-5.51426
674,0.689432,-7.0133634,1.387239
675,1.3866407,-10.022038,4.9229336
676,3.1926236,-10.479666,8.169097
677,4.5628138,-9.585947,10.320244
678,4.6205406,-7.176075,9.273384
679,1.7099708,-6.5629144,9.529716
680,-6.1331034,-8.239685,13.024732
681,-9.309277,-9.260223,12.207882
682,-9.783653,-10.079466,4.098905
683,-6.669694,-11.876177,-1.8394824
684,-3.5482569,-12.559029,4.261916
685,-2.71705,-13.864313,6.5808606
686,-3.2919257,-15.704095,3.5096726
687,-2.0174487,-15.07897,-1.4297116
688,-0.70947194,-13.430914,-4.412066
689,0.60329044,-11.5265255,-2.6443682
690,2.7999015,-11.655738,-0.785444
691,5.523532,-13.74228,-0.35413775
692,7.7847495,-16.288542,0.08883354
693,7.4973116,-17.175083,0.05054838
694,5.10419,-16.413267,2.0844476
695,1.6980067,-15.086148,5.461917
696,-1.495215,-14.149359,8.580961
697,-2.2594228,-13.890934,10.305887
698,-2.1326032,-13.893327,9.865009
699,-1.4090735,-13.828422,9.409775
700,2.2417758,-13.89572,4.7626143
701,4.364209,-13.960325,-0.061914288
702,6.5512495,-14.451452,-4.5798626
703,6.6565337,-14.288442,-7.3250284
704,3.9999022,-15.131612,-6.800402
705,2.0428724,-15.816856,-6.175277
706,0.4642076,-16.54248,-5.3560343
707,-0.8700901,-17.663816,-5.770591
708,-3.5937204,-20.80649,-5.741578
709,-6.3053865,-24.291935,-7.2676005
710,-7.7500534,-24.037996,-2.6108687
711,-9.894023,-21.68346,0.5249255
712,-10.718051,-18.485453,-1.044168
713,-12.545569,-15.546168,-4.587041
714,-15.008382,-11.5265255,-10.147063
715,-10.238888,-9.928719,-9.02124
716,-12.440285,-6.375975,-3.5210385
717,-6.544968,-3.1420753,-0.34456646
718,-0.94426763,-3.4342988,-2.2875385
719,-0.21355942,-3.7459638,-2.888735
720,4.383352,-4.3591247,-3.05384
721,8.836395,-4.5388856,-5.3847485
722,8.295019,-3.7651064,-4.306782
723,4.3929234,-2.6389842,-3.4396825
724,1.7721843,-1.3456637,-2.4335005
725,-0.089132644,-0.14057833,-2.9916265
726,0.7181459,1.3420744,-3.611966
727,1.558924,2.7532415,-4.0791645
728,2.914757,3.99392,-4.927121
729,4.462315,4.7341995,-4.4168515
730,3.4704902,4.278965,-8.673683
731,-0.036490545,3.5700915,-8.475079
732,-2.6090739,1.8427725,-4.256532
733,-3.735196,-1.6809579,2.5082762
734,-3.3326037,-4.9459643,9.302098
735,-10.782657,-13.136297,27.083761
736,-15.341283,-21.149261,27.06701
737,-15.068202,-24.965216,21.444777
738,-10.413863,-24.84049,13.963615
739,-6.645467,-22.267906,10.425529
740,-4.5711884,-17.553448,8.820542
741,-3.7280176,-8.95125,5.948258
742,-2.7481568,-5.077869,4.2834516
743,-4.6429734,-2.8402805,1.198206
744,-3.7663028,-0.8545368,-4.7452664
745,-5.2441697,-0.80189466,-8.700004
746,-8.811271,-3.2333016,-9.938589
747,-14.629718,-8.098508,-2.778366
748,-21.476181,-19.527527,15.350555
749,-25.584358,-35.56273,2.3479571
750,-5.366503,-26.548666,-22.83351
751,3.3795629,-12.920644,-14.1356
752,-1.2963116,-9.322437,-8.618649
753,-2.1517458,-7.494919,-3.6816568
754,-0.2832504,-5.398806,-2.1269202
755,-0.33589247,-4.200899,-3.458825
756,1.2212368,-3.5757744,-4.057629
757,3.5856447,-3.6571302,-6.1848483
758,2.6943183,-7.93789,-6.1585274
759,-1.3420744,-12.527623,-3.1043882
760,-1.3133606,-14.844174,-2.2848465
761,-0.8030911,-15.378372,-1.899303
762,2.80708,-14.429917,-4.0504503
763,4.725825,-13.660924,-5.988338
764,4.6372905,-11.89532,-5.2890353
765,4.76411,-10.264012,-5.334499
766,4.1988053,-9.358628,-5.051847
767,4.354638,-8.623135,-4.045665
768,3.1926236,-5.9353967,-6.1010995
769,0.49292147,-6.9798636,-1.3172488
770,0.18634106,-10.398011,2.7646074
771,1.5637096,-12.005389,6.719644
772,3.5808592,-11.475977,9.970294
773,5.782256,-8.570493,9.038589
774,4.9031925,-6.3687963,4.293023
775,1.0725827,-6.431309,3.4737802
776,-5.6156554,-7.8493557,8.827721
777,-9.649655,-9.281759,9.529716
778,-10.588539,-9.81835,5.246563
779,-8.732008,-10.115358,3.0616167
780,-4.772186,-11.143076,6.489634
781,-5.217849,-13.979468,7.117451
782,-3.1866415,-15.974783,2.5396821
783,-0.56829536,-15.100506,0.27098715
784,-2.3623142,-13.893327,-0.29910284
785,-1.0929217,-12.427124,-0.30867413
786,2.0691934,-12.704991,-0.4621139
787,4.495815,-14.171193,-0.011665011
788,7.030412,-15.114862,0.1896312
789,8.1682,-15.352051,0.6664011
790,8.259127,-14.369798,1.8137596
791,6.5488563,-13.780564,3.8401814
792,3.6167514,-14.063217,7.225128
793,0.8596215,-15.2419815,9.501001
794,-0.21595225,-15.186647,10.499705
795,0.2533401,-15.244374,7.850253
796,3.185445,-16.370197,3.1863425
797,7.9310107,-16.513767,-4.3235316
798,7.806584,-15.847963,-8.175676
799,3.772285,-13.902898,-8.9348
800,0.80189466,-13.313366,-7.2580295
801,-0.7046863,-13.847564,-5.241179
802,-2.0844476,-15.6466675,-4.5224347
803,-4.8562336,-19.628025,-4.9510493
804,-8.406285,-25.357939,-5.2289157
805,-9.153743,-26.04079,-3.1546376
806,-10.169497,-25.561626,-2.6778677
807,-15.640685,-22.950459,-2.9030921
808,-19.75604,-19.242481,-2.2178476
809,-20.882164,-13.607983,-0.69212395
810,-15.913766,-8.817252,-5.446962
811,-8.140383,-8.75474,-9.485747
812,-3.5745778,-6.460023,-1.0250254
813,-0.8772686,-4.785346,-1.3316058
814,4.1461635,-4.8646083,-2.3688943
815,6.3954167,-5.779564,-1.8801605
816,8.709576,-5.753243,-4.0384865
817,9.068798,-6.139086,-6.189634
818,6.129514,-3.5877385,-3.8467615
819,4.158128,-1.8798612,-3.5353954
820,2.1505494,0.33140594,-3.6457644
821,2.6943183,2.8345976,-3.7271204
822,3.5712879,4.3414774,-3.8300118
823,3.7459638,5.574978,-5.1092744
824,4.6803613,5.9751773,-5.878268
825,4.275376,5.1702914,-5.940481
826,1.5613167,4.619344,-6.7908306
827,-1.2029916,2.9685955,-4.587041
828,-4.755436,-0.5192425,1.9118652
829,-5.4382877,-3.946961,12.056835
830,-10.128519,-9.447163,20.615961
831,-14.953048,-16.621742,22.891834
832,-14.9554405,-20.912073,19.2362
833,-11.9922285,-24.026033,13.872688
834,-11.146666,-23.45355,8.803793
835,-8.614759,-18.528522,5.9602222
836,-7.2565336,-13.13869,4.534997
837,-6.7151575,-9.176475,3.4402807
838,-4.1685963,-5.885147,-0.19381863
839,-1.5143577,-2.4308088,-8.944371
840,-7.4240313,-3.5781672,-9.703794
841,-12.064313,-7.5547395,-4.316353
842,-15.930516,-16.861324,10.684252
843,-21.092731,-32.292934,19.751255
844,-5.174778,-29.44488,-21.20699
845,8.024331,-11.111969,-21.173489
846,1.1542379,-8.419446,-9.334999
847,-1.5191432,-6.902994,-3.3293135
848,-2.0078773,-5.5591254,-0.85244304
849,-1.713261,-4.660919,-1.477568
850,-1.5311074,-4.3591247,-3.2814572
851,0.9768698,-4.3471603,-5.193023
852,2.2848465,-5.6742797,-6.5922265
853,1.178166,-11.389835,-4.9657054
854,-0.9945169,-15.002399,-2.7759733
855,1.2882359,-16.410875,-2.091028
856,3.4345977,-16.068401,-4.4602213
857,5.0563335,-14.980865,-6.227919
858,5.046762,-12.407982,-5.768198
859,5.2743793,-10.345368,-4.855336
860,5.0659046,-8.534301,-4.723731
861,4.6037908,-7.887641,-4.1294136
862,2.1747768,-6.879066,-2.5292134
863,0.2653042,-4.7638106,-5.892625
864,-1.4353945,-7.8254275,0.42203408
865,-1.0857433,-10.472487,3.4546378
866,0.34217364,-10.786246,6.693323
867,1.4009976,-9.811171,10.097412
868,2.2178476,-7.7368927,11.515459
869,1.8248264,-5.8489556,8.130512
870,-2.2761726,-6.0933228,8.69133
871,-6.8300133,-7.1162543,8.66471
872,-9.90838,-8.481659,6.908976
873,-8.926126,-10.460524,1.1644074
874,-4.2717867,-11.662917,1.1763715
875,1.3336995,-14.056039,5.119444
876,1.7793628,-16.02264,3.1504502
877,0.41156548,-16.973787,2.7263224
878,-1.7180467,-16.317554,3.4283166
879,-3.845266,-13.23201,-2.524428
880,-0.9418748,-12.343375,-3.6266217
881,3.5234313,-13.150654,-1.9806589
882,6.3547387,-15.081363,0.7812566
883,8.182556,-16.655243,2.4747767
884,6.9993052,-16.633707,2.7789643
885,3.690929,-14.971293,3.5503507
886,0.26291138,-12.820146,6.8611197
887,-2.5372894,-12.101401,9.932009
888,-3.5482569,-11.493027,11.67847
889,-4.578367,-12.211472,11.484352
890,-3.0068808,-13.117155,7.7665043
891,0.581755,-12.853645,1.835295
892,2.1505494,-13.794922,-2.9796624
893,3.6957145,-15.426229,-6.6352973
894,4.4144588,-16.173687,-6.7118673
895,4.0238304,-17.086248,-6.311967
896,2.8166513,-17.735601,-5.6889358
897,1.1207383,-18.394226,-6.652047
898,-2.3336003,-20.162222,-7.327421
899,-4.144668,-22.859531,-6.129813
900,-5.1341,-23.662025,-2.9772696
901,-7.752446,-21.661924,4.1204405
902,-10.8018,-17.910576,2.8558338
903,-11.843874,-15.17229,-1.9615164
904,-11.633006,-12.24497,-5.415855
905,-3.112165,-9.322437,-6.489036
906,-9.896416,-7.8254275,-4.45065
907,-8.995518,-4.665705,-1.4344971
908,-3.6726837,-3.01047,-0.29192436
909,0.052342996,-3.5781672,-3.1522448
910,1.9878374,-4.792824,-4.1150565
911,4.3187456,-5.465805,-5.00399
912,6.5105715,-4.2681975,-4.9031925
913,5.037191,-2.3659034,-3.9786658
914,3.6861434,-1.3576277,-3.3101711
915,2.2274187,-0.18364914,-3.1833515
916,1.6115661,1.1889337,-3.6023946
917,2.3829522,2.312364,-3.7654054
918,1.6211374,3.332903,-4.4458647
919,1.041476,4.1258245,-2.8313074
920,0.45702913,4.0731826,-2.333002
921,-0.18484555,3.8958144,-4.7452664
922,-1.2819548,2.650051,-5.253143
923,-3.0355947,0.5805586,-1.6214365
924,-4.4967117,-4.069294,6.3508506
925,-8.200203,-9.84467,14.804394
926,-14.826228,-16.614565,23.739792
927,-16.519749,-22.912174,23.68715
928,-15.276677,-29.260332,18.560528
929,-9.70469,-27.073292,13.863117
930,-3.4764721,-19.18954,8.92822
931,-2.6572297,-11.514562,6.4872413
932,-2.4128625,-6.297012,5.5746784
933,-1.6295122,-2.5384858,1.1189437
934,-3.124129,-1.3791631,-3.772584
935,-4.4368916,-0.5168497,-9.610473
936,-11.070095,-5.1735816,-11.5722885
937,-13.971093,-8.92493,-9.620045
938,-18.723837,-16.06601,2.417349
939,-26.944977,-29.88785,18.874584
940,-10.332209,-28.18476,-9.541081
941,2.495714,-13.965111,-14.295918
942,0.18873389,-9.269794,-9.746864
943,-2.1589243,-7.8182487,-4.7045884
944,-1.0016954,-6.387939,-3.243172
945,2.021337,-4.8358946,-3.6696925
946,8.283054,-3.592524,-8.946764
947,8.381459,-6.01436,-10.963913
948,-0.6903293,-14.350655,-6.0987067
949,-1.3277174,-16.147366,-3.228815
950,-1.1790633,-15.898212,0.9346963
951,4.7114677,-12.58535,-2.6611178
952,5.686543,-11.38505,-3.5808592
953,4.773681,-9.772886,-3.9020956
954,6.1127644,-8.440981,-3.3894334
955,7.083054,-7.3678,-3.3990045
956,6.457929,-6.7522464,-3.077768
957,3.8228333,-4.9986067,-6.27099
958,0.03798606,-5.2956157,-2.836093
959,-0.73579293,-8.55135,1.0040882
960,0.24855445,-10.913066,4.642674
961,2.00698,-11.270195,8.353344
962,3.5593238,-9.629316,9.991829
963,3.9257247,-6.977471,6.175875
964,0.5913263,-7.2912297,2.9132617
965,-3.7567315,-8.402696,5.1720862
966,-7.5344005,-9.605089,7.6683984
967,-8.928518,-9.911968,5.7349977
968,-9.8219385,-10.659127,2.8462625
969,-7.9055867,-11.104791,4.3408794
970,-6.396613,-11.61506,6.6071815
971,-3.6870406,-14.714962,4.2762733
972,-1.8329022,-15.234802,2.2761726
973,0.18155542,-14.920745,0.43639103
974,0.17198412,-13.677673,-1.750948
975,2.8166513,-12.455838,-1.2813566
976,5.767899,-13.658531,-0.014057833
977,6.5464635,-14.884852,0.024227329
978,7.7345,-15.87907,0.45074797
979,7.1691957,-15.519848,1.358525
980,5.4852467,-14.642879,2.7478578
981,2.696711,-14.846567,5.5507503
982,0.37806597,-15.2324095,8.176275
983,-1.2053844,-15.670595,10.468599
984,-2.2235305,-16.753347,11.903694
985,1.4991034,-17.273188,6.448956
986,4.6396832,-16.664814,-0.18903299
987,6.1534424,-15.230017,-6.062814
988,4.4742794,-13.32533,-8.956335
989,2.5986054,-12.949358,-7.7300134
990,0.8282157,-13.294224,-5.3033924
991,-1.2675978,-15.203397,-4.6468616
992,-3.1576285,-17.179869,-5.45414
993,-5.9413786,-20.916859,-6.9729843
994,-7.0695944,-22.928925,-5.9644094
995,-8.995518,-23.199612,-2.5148566
996,-10.059127,-21.412771,2.297708
997,-10.488041,-18.308084,0.6349953
998,-14.3925295,-15.313766,-2.9940193
999,-16.541285,-11.183754,-1.9591235
1000,-13.594822,-8.297412,-8.055737
1001,-7.809874,-8.740383,-7.600502
1002,-4.369892,-5.2429733,-0.2727818
1003,0.35413775,-3.6355948,-3.367898
1004,5.5259247,-4.28734,-4.2014976
1005,5.703293,-4.0812583,-2.0838494
1006,7.954939,-4.5388856,-3.7534413
1007,8.503493,-4.5652065,-5.332106
1008,6.1701922,-3.2333016,-3.9116669
1009,3.6646078,-1.0869397,-3.2144582
1010,2.0093727,0.2641078,-3.636193
1011,2.3901308,2.0823538,-4.368995
1012,1.9471594,2.678765,-4.4578285
1013,2.7424738,3.8910286,-5.1236315
1014,4.0504503,4.121039,-6.072386
1015,3.2309089,4.0923247,-7.6124663
1016,0.8380861,3.7256248,-7.2029943
1017,-1.5047864,1.6393826,-3.8874395
1018,-3.6224344,-1.1802598,1.6842481
1019,-4.9375896,-5.341378,10.868798
1020,-10.626824,-12.127723,22.098913
1021,-16.694723,-19.754845,23.394627
1022,-15.106487,-24.804598,20.668604
1023,-11.865409,-24.785456,15.928123
1024,-9.949058,-23.048864,12.272489
1025,-6.602396,-15.859927,8.315059
1026,-5.1006007,-9.176475,5.3925247
1027,-3.3110683,-5.0368915,3.39721
1028,-4.278965,-2.9937203,0.24466611
1029,-5.0718865,-2.2989044,-3.638586
1030,-6.4755764,-3.5997026,-7.231708
1031,-9.553643,-6.9894347,-8.017451
1032,-14.275281,-12.743276,-2.5845475
1033,-20.230417,-23.420052,11.086546
1034,-17.317455,-32.154152,5.747261
1035,-0.58265233,-20.358734,-16.02563
1036,3.2117662,-10.479666,-15.436398
1037,-1.250848,-8.1344,-8.338388
1038,-1.6079768,-6.7378893,-3.4013975
1039,-0.88205427,-5.3075795,-2.0862422
1040,0.1911267,-3.906283,-3.0011978
1041,4.060022,-2.332404,-6.7669024
1042,5.672186,-3.9828532,-8.448758
1043,1.4009976,-9.562018,-6.9801626
1044,-1.3034902,-13.907683,-3.106781
1045,-1.509572,-15.969997,-0.97477615
1046,2.035694,-15.958034,-1.4129617
1047,4.3259244,-15.134005,-4.8505507
1048,5.0012984,-12.515658,-4.7428737
1049,5.6817575,-10.994721,-4.750052
1050,5.2576294,-9.454341,-4.1461635
1051,4.7425747,-8.424232,-4.6731825
1052,4.5484567,-6.6299133,-5.2866426
1053,0.7827521,-4.6489553,-4.246961
1054,-0.33110684,-6.2204413,-1.2430713
1055,-0.21834506,-10.216156,4.3097725
1056,1.7721843,-11.1478615,7.8840513
1057,3.6263227,-9.916755,9.582357
1058,4.8047876,-7.097112,5.9267225
1059,4.234698,-6.347261,2.69043
1060,-0.9729815,-8.460124,-2.1005993
1061,-8.847162,-10.920244,8.202596
1062,-13.817654,-12.168401,13.5278225
1063,-11.254642,-11.507383,8.600103
1064,-7.402496,-11.653345,6.436992
1065,-4.0513477,-14.180764,6.2117677
1066,-2.7194428,-16.221542,5.938687
1067,-4.3579283,-16.913965,3.2246277
1068,-4.6764727,-14.769997,-0.04516453
1069,-1.849951,-13.17219,-0.27038896
1070,2.6225336,-12.693027,1.2340983
1071,6.349953,-14.017754,0.7070791
1072,8.084451,-14.939887,0.78843504
1073,10.374382,-15.253945,0.7046863
1074,9.090333,-14.003396,1.9884356
1075,5.885147,-12.987643,5.6727843
1076,0.3493521,-12.673884,9.4890375
1077,-2.906083,-13.505091,9.977472
1078,-1.2197413,-14.487345,7.8670025
1079,2.696711,-16.05883,1.5574285
1080,7.789834,-16.267006,-4.627719
1081,8.522636,-16.358232,-5.415855
1082,7.602895,-16.674385,-6.472286
1083,4.098307,-15.850356,-6.2757754
1084,-0.36460635,-16.731812,-6.707082
1085,-2.4224339,-18.401403,-6.778867
1086,-5.871987,-22.136002,-7.409076
1087,-8.118847,-25.642982,-6.9035926
1088,-10.1599245,-25.846672,-1.9758734
1089,-11.304891,-22.802105,3.7348971
1090,-13.216456,-18.154644,-0.6945168
1091,-16.75933,-13.684852,-4.1174498
1092,-17.557037,-11.928819,-4.3498526
1093,-11.034203,-8.817252,-4.261318
1094,-3.4019957,-7.7440715,-9.5506525
1095,-3.95055,-4.234399,-3.147459
1096,-1.9336998,-2.4020948,-1.274178
1097,2.5028925,-2.7421749,-3.2527432
1098,5.9285173,-3.1540394,-3.350849
1099,10.290633,-5.7580285,-4.469793
1100,10.685748,-6.352047,-5.5597234
1101,6.501,-3.566203,-3.7534413
1102,2.6799614,-1.0917253,-2.996412
1103,0.37567315,0.79830545,-3.8180475
1104,0.32542387,2.231008,-3.8108692
1105,0.07866404,3.2368908,-4.0360937
1106,1.1255239,4.597809,-3.2647073
1107,4.0648074,5.1942196,-4.3785663
1108,4.613362,4.3725843,-8.88455
1109,1.7554345,3.4669008,-7.9480596
1110,-0.48903313,2.6620152,-6.472286
1111,-2.6979074,-1.1300105,3.2150564
1112,-4.491926,-5.2310095,14.234303
1113,-9.311669,-11.53849,27.740292
1114,-14.553147,-17.618053,26.097021
1115,-14.845371,-22.200907,22.676182
1116,-14.905191,-26.181967,11.896217
1117,-9.652048,-26.864819,5.9985075
1118,-6.267102,-19.457836,2.2088745
1119,-5.205885,-12.24497,1.0495518
1120,-4.8849473,-4.6345983,2.1705892
1121,-8.820842,-3.9756749,4.3121657
1122,-8.973982,-4.761418,2.0365913
1123,-9.501001,-7.0803623,-6.16092
1124,-12.873984,-10.767104,-5.2483573
1125,-18.740587,-20.672493,14.150555
1126,-16.541285,-29.143084,8.466105
1127,-4.892126,-24.39034,-12.233604
1128,5.9644094,-10.136894,-18.742083
1129,1.4273187,-6.9125657,-12.453745
1130,-0.26171497,-5.6814585,-6.860522
1131,-0.34067813,-4.4931226,-2.2609184
1132,-0.06999006,-3.9445682,-1.4249259
1133,2.5292134,-2.3300111,-6.5778694
1134,6.393024,-1.7934206,-12.18545
1135,1.8918254,-6.0358953,-9.011669
1136,-0.7429714,-10.805388,-5.372784
1137,-0.9849456,-14.875281,-0.7686943
1138,-0.46749774,-16.331911,-0.75194454
1139,2.0620148,-18.035004,-2.4263222
1140,4.7545385,-16.116259,-7.303493
1141,4.6325045,-13.943576,-7.3899336
1142,4.5484567,-12.12533,-5.875875
1143,4.3905306,-10.314262,-4.9992046
1144,3.0873394,-8.692527,-4.223033
1145,2.1385853,-6.58445,-4.805087
1146,-0.3789633,-4.9531426,-2.780759
1147,-1.3181462,-9.06132,2.7526433
1148,-0.15373886,-11.332408,6.422635
1149,1.3600205,-11.274981,9.946365
1150,1.6860427,-10.393225,11.103595
1151,1.3624134,-6.2994046,9.92483
1152,0.57457656,-5.2022953,7.1222367
1153,-1.6223338,-5.130511,8.820542
1154,-5.2848477,-7.3582287,6.5569324
1155,-9.560822,-10.515558,0.84347
1156,-9.534501,-11.143076,-1.547259
1157,-6.856334,-12.398411,2.1155543
1158,-0.90119684,-13.421342,8.5067835
1159,-0.012562319,-15.773786,4.3648076
1160,-0.36699918,-15.625132,2.4221346
1161,-1.2675978,-14.731711,-0.6774679
1162,0.3469593,-12.206686,-3.3822548
1163,3.5090744,-12.118151,-0.06669993
1164,5.604888,-14.211871,1.8113668
1165,6.9559355,-15.962819,1.590928
1166,6.48425,-16.593029,1.8711873
1167,5.193023,-16.001104,2.6449664
1168,3.1495528,-15.582061,4.304987
1169,1.87029,-15.883856,5.787939
1170,-0.6472585,-16.300806,9.469596
1171,-1.3588241,-16.456339,10.288838
1172,0.27726832,-16.475481,6.7555366
1173,3.542574,-16.506588,1.1958131
1174,6.179764,-15.490834,-6.129813
1175,5.238487,-13.907683,-8.786445
1176,2.198705,-12.966107,-7.097411
1177,0.18394823,-13.10519,-5.102096
1178,-1.3133606,-14.139788,-4.738088
1179,-2.9012976,-15.735202,-5.6506505
1180,-5.5220366,-18.918852,-7.1623163
1181,-6.5497537,-20.447268,-7.2843504
1182,-8.109276,-22.045074,-4.994419
1183,-12.67508,-22.145573,2.714358
1184,-16.337894,-17.601305,0.25184458
1185,-18.388245,-14.55195,-3.3317065
1186,-17.34617,-11.176576,-3.2647073
1187,-9.570394,-9.7681,-1.4727824
1188,-1.0160524,-8.098508,-8.02463
1189,-1.5717853,-6.1342998,-3.7366917
1190,0.3804588,-4.176971,-1.5903298
1191,4.4814577,-4.406981,-1.721935
1192,6.7908306,-4.354339,-2.1891336
1193,7.3322067,-5.032106,-3.3029926
1194,7.7440715,-5.6359944,-5.305785
1195,4.1868415,-3.2859437,-3.4253256
1196,2.088336,-1.6354942,-3.2336006
1197,1.1685947,-0.31316066,-3.566502
1198,1.5613167,1.7327027,-4.280461
1199,2.1314068,2.501696,-3.9571304
1200,2.030908,4.4802613,-4.1030927
1201,4.2442694,5.0742793,-4.699803
1202,4.397709,4.7341995,-6.788438
1203,2.3901308,3.9006,-8.769695
1204,-0.25932217,1.605584,-3.7151563
1205,-2.4152553,-1.4102699,1.3800604
1206,-3.8213377,-3.3122647,6.329315
1207,-11.597114,-11.947962,29.55106
1208,-16.864914,-19.105791,26.736504
1209,-13.223636,-22.897818,23.382664
1210,-13.024732,-24.739992,14.871692
1211,-9.287741,-23.24029,7.43121
1212,-8.336893,-20.33959,6.5350976
1213,-7.1629148,-9.885648,5.3685966
1214,-8.451749,-7.9091763,2.3814569
1215,-4.7769713,-5.2573304,-6.0915284
1216,-5.838188,-5.3533425,-10.496715
1217,-9.560822,-7.1976104,-10.607083
1218,-16.78565,-14.396118,2.3431716
1219,-18.26621,-21.903599,17.063517
1220,-15.693327,-26.48406,1.8544376
1221,1.0342976,-12.103794,-19.051056
1222,3.5162528,-7.748857,-12.607184
1223,-2.2139592,-7.5667033,-6.882057
1224,-1.591227,-6.58445,-3.1929228
1225,-0.65922266,-5.4299126,-2.80708
1226,-0.017347964,-4.5508494,-4.4674
1227,1.4273187,-4.1985064,-5.0901318
1228,4.5484567,-6.5222363,-8.1586275
1229,0.33260235,-12.256935,-5.2025948
1230,-0.9107681,-15.663417,-3.611966
1231,-0.34307095,-16.164116,-4.0504503
1232,3.839583,-15.87907,-5.0685964
1233,5.5450673,-13.670495,-6.9873414
1234,4.495815,-11.071291,-4.627719
1235,4.464708,-9.423235,-4.0959144
1236,3.6478581,-8.206185,-3.3388848
1237,4.217948,-7.2696943,-3.2910285
1238,3.37717,-4.4979086,-6.180063
1239,1.1638091,-5.398806,-1.5951154
1240,0.11455639,-9.138189,2.4795625
1241,1.3073785,-11.114362,5.840581
1242,3.1399815,-10.982757,8.822935
1243,3.9687955,-8.752347,8.732008
1244,3.1208389,-6.1582284,3.938586
1245,2.1242282,-5.5686965,1.3274183
1246,-2.7625136,-6.9678993,1.7467605
1247,-7.2876406,-8.580064,6.6167526
1248,-9.077172,-9.535697,6.1304116
1249,-10.413863,-12.887144,6.9352975
1250,-6.2048883,-14.731711,7.5317082
1251,-3.5099716,-16.890038,8.674281
1252,-2.8582265,-17.718851,8.161918
1253,-2.3479571,-15.773786,2.9778678
1254,-3.2967114,-14.350655,0.19680966
1255,-1.5574285,-12.374482,-0.44057846
1256,-0.58983076,-12.082259,0.029012974
1257,5.283951,-13.068999,-0.14327025
1258,8.379066,-15.490834,0.30209386
1259,10.62832,-16.80599,0.8889336
1260,10.089336,-16.698313,1.8951155
1261,7.732107,-15.414265,2.1825533
1262,5.2695937,-15.186647,5.838188
1263,3.4800615,-14.966507,7.5173516
1264,-0.97537434,-15.102899,10.643574
1265,-1.1407782,-15.981961,6.113662
1266,1.5828521,-15.021543,-0.6873383
1267,3.2117662,-13.006785,-5.0997033
1268,2.00698,-12.858431,-5.6410794
1269,0.86201435,-12.9134655,-4.936692
1270,-0.7286145,-13.593625,-4.6612186
1271,-3.19382,-15.313766,-5.006383
1272,-5.8214383,-18.2363,-5.593223
1273,-7.5774713,-20.940788,-5.1379886
1274,-9.800404,-22.84039,-2.0694926
1275,-10.516754,-22.883461,-0.011665011
1276,-9.24467,-19.76681,0.232702
1277,-9.982557,-16.070795,-3.8563328
1278,-13.31217,-13.200904,-6.1561346
1279,-13.501502,-11.157433,-4.232604
1280,-4.772186,-9.758529,-4.9462633
1281,-2.4008985,-9.626924,-7.205387
1282,-2.1278176,-6.4241304,-2.0982063
1283,3.0897322,-4.136293,-2.495714
1284,7.138089,-5.101797,-2.9006991
1285,7.7946196,-5.7604213,-1.8346968
1286,8.0868435,-5.710172,-4.4144588
1287,4.874479,-3.990331,-4.31396
1288,2.1867409,-1.9348962,-3.324528
1289,0.27008986,-0.068793654,-3.9690945
1290,-0.14177474,1.5816557,-4.29721
1291,0.7851449,2.7388847,-5.00399
1292,1.1207383,3.833601,-4.9582276
1293,3.0634112,4.5762734,-4.881657
1294,4.495815,3.7591243,-6.9035926
1295,3.0825539,2.6715865,-7.2508507
1296,0.9098708,2.1014965,-4.8122654
1297,-3.354139,-1.0510473,2.3024936
1298,-8.19781,-8.687741,17.307884
1299,-13.130315,-16.204794,29.112875
1300,-15.750755,-20.430517,25.735107
1301,-14.984453,-21.829422,18.769001
1302,-13.841581,-21.017357,15.683756
1303,-9.668798,-17.663816,6.9687967
1304,-4.623831,-12.731312,5.4643097
1305,-3.5243287,-9.257831,7.253842
1306,-3.5793636,-8.587242,2.3694925
1307,-2.7074788,-7.327122,-1.6716857
1308,-8.806484,-9.653245,-8.017451
1309,-15.904195,-16.07558,-4.110271
1310,-18.26621,-19.779072,1.0543375
1311,-16.783258,-27.8375,5.7110696
1312,-10.674681,-23.678774,-4.658826
1313,0.8979067,-7.952247,-14.569
1314,1.5278172,-4.086044,-9.296714
1315,-0.99930257,-4.4548373,-7.533503
1316,-1.3420744,-4.1817565,-2.4454648
1317,-0.8150552,-3.6236308,-4.1871405
1318,-1.1072787,-3.6140594,-5.564509
1319,0.9026923,-3.8081772,-6.367002
1320,2.181955,-4.3040895,-7.713264
1321,3.7507496,-6.6299133,-8.098807
1322,3.3197422,-9.233903,-6.728617
1323,-0.8389834,-18.746569,-1.3555341
1324,1.7147565,-19.0364,-2.2585254
1325,4.1964126,-17.97279,-7.0351977
1326,5.2456656,-15.416657,-7.157531
1327,3.9161534,-13.071392,-6.189634
1328,4.5340996,-10.920244,-6.8868427
1329,4.2035913,-9.511769,-6.261419
1330,2.4598217,-8.450552,-4.138985
1331,1.3504493,-7.8278203,-3.8371902
1332,-0.70947194,-6.4241304,-1.6334006
1333,-0.2832504,-10.977971,5.7951174
1334,0.90508515,-11.612667,8.614461
1335,2.3159533,-11.052149,11.2017
1336,2.9051857,-8.546564,11.886645
1337,2.3566313,-6.8599234,7.54128
1338,-0.14895321,-6.9391856,8.827721
1339,-5.857331,-9.8015995,5.117051
1340,-11.252249,-11.109576,7.194021
1341,-10.085448,-11.813964,2.759822
1342,-4.1638107,-11.739487,1.3226327
1343,0.41156548,-13.2870455,8.068299
1344,0.3062813,-14.851353,6.7483582
1345,-0.27128628,-15.368801,5.9817576
1346,-2.6042883,-14.12543,-0.7304091
1347,-0.40528435,-12.197114,-1.654936
1348,0.689432,-12.000604,-1.0058829
1349,3.920939,-12.980465,-0.18903299
1350,5.9763737,-14.944673,1.9166509
1351,6.2374907,-15.059828,2.7095726
1352,5.6913285,-14.523237,2.9826534
1353,3.226123,-14.084752,5.560322
1354,0.7516454,-13.8092785,8.281559
1355,0.16002001,-13.622639,8.962018
1356,0.42831525,-14.001003,8.549854
1357,3.365206,-16.432411,3.95055
1358,6.893722,-16.978573,-2.3042881
1359,7.1596246,-15.936498,-7.1886373
1360,6.201598,-15.107684,-7.5526457
1361,1.4847465,-14.286049,-5.619544
1362,-0.4459623,-14.8944235,-4.733302
1363,-1.986342,-16.152151,-5.2435718
1364,-4.4799623,-18.940388,-5.5836515
1365,-7.4937224,-22.931316,-4.5559344
1366,-8.281858,-23.56392,-2.1053848
1367,-8.454142,-22.775784,-0.7280163
1368,-10.70848,-19.115362,-2.1891336
1369,-13.247563,-16.815561,-3.3412778
1370,-16.227526,-13.004393,-4.33071
1371,-15.655042,-10.419846,-3.6290147
1372,-9.862617,-9.303294,-4.179962
1373,-6.571289,-7.9666038,-7.07109
1374,-2.2402802,-3.460919,0.014656039
1375,0.5288138,-3.58056,-1.0776675
1376,3.0825539,-3.5303106,-2.606083
1377,6.9702926,-4.0238304,-3.0466614
1378,8.275876,-5.465805,-4.709374
1379,7.0806613,-5.2022953,-4.3618164
1380,3.9544384,-3.3146574,-3.1163523
1381,1.8535402,-1.2927225,-2.9030921
1382,0.94337034,0.7600203,-3.4779677
1383,1.5182459,1.931606,-3.7199419
1384,1.8798612,3.3520455,-3.554538
1385,3.4010983,3.9173498,-4.3785663
1386,5.391927,3.141178,-6.297311
1387,5.6554365,3.4046874,-7.399505
1388,0.45224348,2.556731,-6.081957
1389,-3.5697923,0.47018966,0.68075806
1390,-4.384249,-1.6857436,5.148158
1391,-11.170593,-11.991033,22.613968
1392,-14.790336,-17.270796,26.348566
1393,-15.187843,-21.565912,22.73361
1394,-12.593724,-22.488346,16.406986
1395,-9.798011,-21.35983,8.089834
1396,-6.0490556,-17.721245,5.8860445
1397,-4.494319,-13.459627,4.700401
1398,-3.9433718,-7.7703924,5.009374
1399,-5.7759748,-7.1473613,-0.014057833
1400,-7.6851482,-7.370193,-1.3435699
1401,-11.910872,-10.922637,-7.4449687
1402,-15.74597,-15.934105,-4.6205406
1403,-16.77608,-21.000608,4.8248277
1404,-13.8296175,-22.739891,2.4556344
1405,-9.961021,-19.905891,-3.406183
1406,-3.1815567,-12.654741,-12.28864
1407,1.1159526,-4.4859443,-9.816555
1408,-1.3516457,-4.9459643,-7.1021967
1409,-1.7587247,-4.390231,-4.465007
1410,-0.64008003,-3.973282,-4.093521
1411,0.07627122,-4.0405803,-6.3550377
1412,0.41635114,-4.1578283,-6.6424756
1413,5.2863436,-4.84068,-9.62483
1414,3.8060834,-10.927423,-4.42403
1415,2.5914268,-12.453445,-3.094817
1416,-0.5347959,-19.690239,-2.0240288
1417,1.9136599,-19.314266,-3.1307094
1418,5.770292,-17.242083,-8.178069
1419,4.299304,-14.832211,-6.5778694
1420,3.9305103,-12.640385,-4.5966125
1421,3.2982068,-10.482059,-3.6577284
1422,3.295814,-8.615956,-3.8587255
1423,2.225026,-4.680062,-10.312168
1424,1.2810575,-7.092326,0.8578269
1425,0.5721837,-9.827921,6.4609203
1426,1.5373886,-10.712069,10.272088
1427,3.2165518,-10.053145,14.406886
1428,2.9315069,-8.32134,13.726427
1429,1.7745771,-6.5365934,10.257731
1430,1.9758734,-5.1161537,3.6320057
1431,0.6008976,-5.1759744,0.8315059
1432,-4.590331,-9.530911,-1.7868403
1433,-9.292527,-12.189936,0.5512465
1434,-10.286744,-12.522838,4.7458644
1435,-9.752547,-12.060723,9.119945
1436,-3.083451,-11.84507,9.541679
1437,-2.3551357,-14.305191,3.6583266
1438,-0.8102696,-14.472988,2.5779674
1439,-1.3851452,-13.711173,0.90329057
1440,-0.40767714,-11.986247,-3.1618161
1441,2.6344976,-11.662917,-3.6960137
1442,3.4968112,-12.407982,-3.2623146
1443,5.506782,-15.122041,0.07447661
1444,6.416952,-16.2024,0.7645068
1445,5.7966127,-16.336697,1.753939
1446,3.4896326,-16.04926,3.3349965
1447,0.6966105,-15.299409,4.518247
1448,0.3900301,-15.07897,6.4417777
1449,0.6343971,-15.831214,8.480463
1450,0.89072824,-16.223936,9.04816
1451,3.4298122,-15.57249,4.534997
1452,3.4369907,-15.016757,-1.0250254
1453,3.4298122,-14.223835,-2.361716
1454,2.1963122,-12.386446,-5.8471613
1455,0.4211368,-12.561421,-5.212166
1456,-1.1048858,-13.318151,-4.5966125
1457,-2.8582265,-14.444274,-4.9438705
1458,-4.4775696,-16.054045,-4.6899323
1459,-7.2996044,-18.97658,-3.5880375
1460,-7.986943,-20.078474,-2.0551355
1461,-9.314062,-20.753849,-0.69212395
1462,-8.224132,-18.648165,0.64217377
1463,-8.700901,-16.566708,-3.7271204
1464,-10.993525,-14.810675,-5.5669017
1465,-13.475181,-11.933605,-4.5296135
1466,-10.4210415,-11.150254,-5.6267223
1467,-5.9270215,-9.988539,-7.238887
1468,-4.3794637,-6.8503523,-0.75673014
1469,-0.7959126,-4.2921257,-1.2167503
1470,2.1963122,-4.301697,-2.699403
1471,4.3498526,-4.6968117,-2.7017958
1472,5.9931235,-5.5423756,-3.065804
1473,7.133303,-5.75085,-4.7691946
1474,5.6407804,-4.1578283,-3.949952
1475,3.5186458,-2.6895328,-3.1163523
1476,1.0582259,-1.355235,-2.5869403
1477,0.9912268,0.34097722,-2.819044
1478,1.2714862,1.0378869,-2.9365916
1479,1.7003996,3.205784,-2.675475
1480,2.5603201,2.7580273,-3.109174
1481,2.5339992,2.5184457,-3.2096725
1482,1.7291135,2.4418755,-7.272386
1483,-0.8748758,1.6199409,-4.6492543
1484,-2.376671,0.21385853,-0.86201435
1485,-3.7854455,-4.2921257,9.163015
1486,-7.903194,-9.092726,20.474785
1487,-14.694623,-16.077974,27.910183
1488,-15.350855,-20.844776,23.272593
1489,-11.149058,-21.105892,12.57189
1490,-9.438788,-20.595922,7.9510508
1491,-6.7582283,-16.710278,6.1208405
1492,-5.122136,-10.115358,3.8545382
1493,-4.491926,-6.1845493,4.558925
1494,-5.5746784,-3.6714873,1.8879371
1495,-5.6443696,-2.4499512,-0.68255264
1496,-6.324529,-1.0220344,-9.725328
1497,-10.871191,-5.0536413,-7.2963142
1498,-15.956837,-12.175579,4.082155
1499,-17.547466,-24.88386,20.093729
1500,-13.084553,-32.913574,-9.620045
1501,-8.595617,-30.675987,-16.281961
1502,4.634897,-10.472487,-15.939489
1503,-1.2867404,-7.978568,-4.9920263
1504,-1.3082758,-6.7905316,-0.06430711
1505,-0.12981063,-5.319544,-2.7448666
1506,0.16480567,-4.847859,-5.102096
1507,2.8956144,-3.2644083,-6.122635
1508,2.0428724,-5.9066825,-5.918946
1509,-1.5717853,-11.12154,-1.925624
1510,-2.1107686,-13.86192,0.50099725
1511,-2.2857437,-16.715063,-3.5234313
1512,-0.5778667,-17.627625,-3.0972097
1513,4.491029,-15.965212,-6.5632133
1514,6.1654067,-14.079967,-7.2963142
1515,4.493422,-12.1301155,-4.766802
1516,4.1557345,-9.90479,-4.1847477
1517,3.6837504,-6.824031,-3.746263
1518,3.9975092,-4.677669,-4.8242297
1519,2.3279173,-7.094719,1.128515
1520,1.2954143,-8.381161,3.3299117
1521,1.6211374,-9.969397,8.303095
1522,2.4212375,-9.986146,10.66511
1523,1.695614,-8.031509,8.803793
1524,0.9912268,-6.7761745,6.1328044
1525,1.7458632,-5.499305,1.3944174
1526,0.020937199,-5.8250275,-2.4837499
1527,-4.3268213,-8.49123,-2.1197417
1528,-10.1599245,-11.456835,2.5082762
1529,-13.247563,-11.660523,14.684752
1530,-8.04467,-10.422238,15.331413
1531,-2.8893332,-11.207683,3.818646
1532,-2.2761726,-15.062221,1.9669002
1533,-2.077269,-15.481263,3.5144582
1534,-2.8606195,-15.380765,2.3670998
1535,-4.099204,-14.231013,-0.5243273
1536,2.6895328,-11.842677,-0.29671
1537,6.0864434,-12.736097,-0.25124636
1538,8.108378,-14.09911,-0.60329044
1539,9.675079,-14.784354,1.1356934
1540,8.965906,-14.762818,1.4374882
1541,6.9993052,-14.7508545,1.7850457
1542,4.685147,-15.395122,5.052445
1543,2.4909284,-15.725631,7.385746
1544,0.4354937,-16.05883,8.787043
1545,-0.40528435,-16.25265,7.0118675
1546,4.2705903,-16.073189,1.0854442
1547,5.276772,-14.839389,-4.086343
1548,5.061119,-13.656137,-6.721439
1549,2.9315069,-13.131512,-6.9059854
1550,0.933799,-13.529019,-5.092525
1551,-1.3707882,-15.050256,-4.3354955
1552,-3.4740794,-16.99293,-4.912764
1553,-6.1977096,-19.93939,-5.770591
1554,-8.370393,-22.481167,-5.49751
1555,-8.842377,-22.701307,-4.031308
1556,-9.49143,-21.836601,-1.2430713
1557,-11.784053,-17.014465,-2.1843479
1558,-15.185451,-13.55534,-4.060022
1559,-16.34268,-10.822139,-3.7199419
1560,-13.04866,-8.946465,-3.5377884
1561,-4.4632125,-7.803892,-8.48465
1562,-3.7878382,-5.4466624,-0.78065836
1563,0.24855445,-4.272983,-1.7003996
1564,1.7697915,-4.011866,-1.9686948
1565,2.2345972,-4.423731,-1.6884354
1566,6.443273,-4.4668016,-2.7496524
1567,7.559824,-5.5830536,-4.0815573
1568,6.9248285,-5.056034,-4.2014976
1569,5.7870417,-4.5269213,-3.4899318
1570,3.0035906,-2.5049863,-2.8791637
1571,1.1039885,-0.6723832,-3.243172
1572,1.1829517,0.7289136,-3.3822548
1573,1.3025929,2.0727825,-3.6433716
1574,3.0586255,2.8896325,-3.1259236
1575,4.7282176,2.7508488,-5.348856
1576,3.9520457,2.5495524,-8.096415
1577,1.2882359,2.501696,-7.0112696
1578,-1.68694,0.7360921,-1.4946169
1579,-2.5731816,-0.63888365,2.9706893
1580,-4.276572,-5.0440702,14.500206
1581,-8.01117,-9.971789,26.396423
1582,-16.898413,-20.854647,25.239195
1583,-13.067802,-23.420052,19.837397
1584,-10.555039,-23.848965,8.152347
1585,-8.8136635,-22.837997,7.038189
1586,-5.124529,-13.5170555,4.87747
1587,-3.342175,-7.6145597,2.5058835
1588,-5.6324053,-6.0526447,1.2987045
1589,-8.109276,-5.75085,3.4426737
1590,-8.312965,-6.7019973,-5.197809
1591,-10.710873,-10.31187,-7.3633137
1592,-14.289638,-15.531812,-1.8562322
1593,-14.140984,-20.397018,6.686145
1594,-11.606686,-20.413769,-1.3986049
1595,-7.752446,-16.657635,-8.549256
1596,-0.9203394,-5.6168523,-10.065707
1597,-0.73340017,-4.2224345,-6.8796644
1598,-1.8571295,-4.5269213,-5.1499524
1599,-2.2019951,-4.584349,-2.3545375
1600,-1.3396816,-4.560421,-3.8443687
1601,-1.5984055,-4.7135615,-5.7248282
1602,-1.3034902,-5.6001024,-5.372784
1603,-0.18245272,-6.948757,-3.8973098
1604,3.9233317,-10.505987,-1.899303
1605,1.2930216,-14.041681,-2.9126635
1606,0.36131623,-16.631313,-4.558327
1607,1.2882359,-19.203897,-4.886443
1608,6.416952,-16.667206,-8.52772
1609,5.621638,-14.4897375,-6.599405
1610,4.6325045,-12.340982,-4.0480576
1611,3.0849466,-10.247263,-3.7366917
1612,2.998805,-6.7259254,-8.642576
1613,2.8956144,-6.297012,-3.204887
1614,1.9423738,-9.619745,2.9706893
1615,2.3374887,-10.975578,8.058727
1616,3.1806595,-10.326226,12.519248
1617,3.4489548,-8.965608,13.034303
1618,3.257529,-6.023931,9.424132
1619,2.696711,-4.395017,4.6354957
1620,1.1757733,-3.946961,1.0184451
1621,-2.0437696,-6.5078793,-5.238786
1622,-9.95145,-11.052149,2.1538396
1623,-13.247563,-12.295519,8.899506
1624,-12.004193,-11.296515,9.946365
1625,-9.673584,-11.452049,8.52114
1626,-5.2848477,-13.984254,7.004689
1627,0.3924229,-18.011076,4.820042
1628,0.5407779,-16.600206,2.184946
1629,-0.8892327,-14.216657,-0.72083783
1630,0.13609178,-12.673884,-1.2263216
1631,1.3217354,-12.331411,-1.1494522
1632,6.8650084,-14.528023,-1.1542379
1633,8.400602,-15.495919,0.39810586
1634,8.2710905,-15.117255,1.2843475
1635,6.1175504,-14.513666,3.056831
1636,2.4092734,-14.353047,6.1902323
1637,-0.51086766,-14.288442,8.053942
1638,-2.1083758,-15.100506,8.367701
1639,1.7338991,-15.553348,6.8276205
1640,3.5353954,-16.00589,1.847259
1641,4.0719857,-15.639489,-4.5391846
1642,3.9664025,-14.106288,-6.6185474
1643,1.8511474,-13.006785,-5.7658052
1644,-0.27128628,-13.193725,-4.191926
1645,-1.4042878,-13.703995,-3.731906
1646,-3.5817564,-14.901602,-3.9379878
1647,-4.6908298,-16.537695,-3.4612179
1648,-8.763115,-21.611376,-3.8635113
1649,-9.302098,-22.035503,-1.4608182
1650,-10.006485,-20.507088,-0.090628155
1651,-9.060123,-16.777275,0.23748764
1652,-11.127522,-14.391333,-4.301996
1653,-13.604393,-11.842677,-3.6505501
1654,-12.279667,-9.777672,-2.8791637
1655,-8.183454,-8.75474,-7.665407
1656,-4.276572,-8.196614,-5.8615184
1657,-3.0212376,-5.439484,-2.6395824
1658,1.6139588,-3.5231323,0.08165507
1659,4.8239303,-4.0621157,-2.129313
1660,7.320243,-5.1640105,-2.361716
1661,7.75125,-6.7642107,-5.2145586
1662,6.1247287,-5.8707905,-3.8778682
1663,2.2561326,-3.9110687,-2.7855446
1664,0.18394823,-1.9205393,-1.9160527
1665,0.102592275,-0.53599226,-2.888735
1666,0.41874397,0.41515473,-3.9403806
1667,0.7325028,0.7648059,-4.153342
1668,1.4033905,2.0105693,-3.4899318
1669,2.6871397,2.202294,-4.4889355
1670,4.3354955,2.3195424,-6.122635
1671,2.4502504,1.9387846,-7.006484
1672,-1.6151553,1.2080764,-3.3149567
1673,-3.9864426,-1.3935201,5.1409793
1674,-6.1184473,-6.541379,17.803797
1675,-9.913165,-11.967104,27.38077
1676,-15.228821,-19.75006,22.4701
1677,-13.808083,-20.641386,21.030518
1678,-9.532108,-20.408983,11.623136
1679,-6.8635125,-18.054146,7.780861
1680,-5.0476594,-13.617554,7.04776
1681,-4.7075796,-11.229517,6.3341007
1682,-5.419145,-8.381161,5.517251
1683,-8.688937,-9.888041,2.3431716
1684,-11.460424,-12.882359,2.2905295
1685,-14.23221,-15.871892,0.05054838
1686,-13.417753,-18.552452,1.8281165
1687,-9.393325,-17.565413,-0.60807604
1688,-2.8773692,-11.444871,-6.97777
1689,0.62482584,-5.710172,-10.990234
1690,-0.1274178,-3.81057,-9.818948
1691,-1.8978075,-3.8416767,-5.782555
1692,-3.0738797,-3.7627137,-2.8815567
1693,-2.6548367,-3.731607,-2.2226331
1694,-2.3336003,-3.9445682,-3.8060834
1695,-3.1839497,-5.2692947,-6.4220366
1696,-3.7013974,-6.270691,-6.949056
1697,-0.86291164,-5.9377894,-7.682157
1698,2.5220351,-8.117651,-6.148956
1699,1.6019948,-12.743276,-2.5965116
1700,-3.2679975,-19.314266,-1.6429719
1701,-3.0355947,-20.198114,-2.8863423
1702,-1.1503495,-20.178972,-5.2627144
1703,2.4741786,-18.32005,-6.7669024
1704,3.3987055,-15.78575,-6.5754766
1705,3.4680972,-13.701602,-6.754938
1706,3.2934213,-13.165011,-6.7501526
1707,3.0275187,-8.613564,-3.039483
1708,4.1724844,-9.454341,3.5383866
1709,3.9233317,-9.722636,9.275777
1710,4.5149574,-9.404092,11.067403
1711,4.4838505,-7.245766,10.8015
1712,2.8812575,-6.0622163,8.969196
1713,1.9567307,-4.871787,6.465706
1714,3.1160533,-3.266801,1.9238294
1715,2.2848465,-3.4585261,0.51056856
1716,-3.152843,-8.697312,-8.125129
1717,-8.835198,-11.315659,1.265205
1718,-13.316956,-13.220046,11.489138
1719,-10.135697,-11.473584,15.137594
1720,-4.3531427,-11.540883,7.2323065
1721,-0.66400826,-15.459728,2.6856444
1722,2.9219356,-15.033506,0.5512465
1723,0.8787641,-13.677673,0.7405786
1724,-0.32392836,-11.689238,-0.29910284
1725,0.8644072,-11.504991,-2.3832514
1726,3.2093735,-12.537194,-1.2215359
1727,4.682754,-14.068003,-1.506581
1728,6.2063837,-14.997614,-0.15792629
1729,6.311668,-15.201004,1.4470595
1730,4.7712884,-15.2419815,3.708576
1731,2.1385853,-16.295721,6.645467
1732,-0.74536425,-16.226328,8.018049
1733,-0.046061836,-16.353447,10.133305
1734,0.26769704,-16.949858,8.794222
1735,4.069593,-16.39891,2.973082
1736,5.5570316,-15.893427,-3.6338003
1737,5.523532,-15.09572,-6.120242
1738,4.8936214,-12.736097,-6.949056
1739,2.0787647,-11.710773,-5.8304114
1740,0.01375873,-11.86182,-4.5894337
1741,-1.5598212,-12.868002,-3.9403806
1742,-3.464508,-15.157933,-4.1775694
1743,-5.869594,-18.025433,-3.3726835
1744,-8.293822,-22.045074,-0.785444
1745,-9.39811,-21.980469,0.19202402
1746,-10.327422,-20.816061,-0.962812
1747,-9.103494,-16.973787,-2.2899313
1748,-9.29492,-14.336298,-5.1667023
1749,-13.04866,-11.703594,-3.7654054
1750,-13.882259,-9.782457,-7.899904
1751,-7.9965143,-10.060324,-6.4962144
1752,-5.181957,-6.2730837,-1.2044871
1753,-0.053240303,-4.100401,-0.5195416
1754,1.6067804,-4.529314,-2.1245275
1755,5.3102717,-5.262116,-2.8959136
1756,6.9128647,-6.0717874,-2.7759733
1757,6.992127,-5.75085,-4.6612186
1758,4.733003,-4.577171,-4.304389
1759,2.1795623,-2.603092,-2.9605198
1760,0.663111,-0.74177504,-2.9437702
1761,-0.14895321,0.8222337,-3.312564
1762,0.9840483,2.0895324,-3.6888351
1763,0.5937191,3.3687952,-3.4325042
1764,1.8726828,4.0755754,-3.0634112
1765,2.7927232,3.833601,-7.626823
1766,2.4646072,3.0765717,-9.279964
1767,-0.71425754,1.3157533,-5.7487564
1768,-2.283351,-1.1539388,1.6100706
1769,-3.1480572,-5.005785,11.057832
1770,-9.005089,-10.927423,26.506493
1771,-13.3842535,-16.343876,31.115368
1772,-15.041882,-20.487946,25.217659
1773,-12.526426,-23.532812,14.864513
1774,-9.280562,-22.11686,9.474381
1775,-4.8323054,-16.863716,8.015656
1776,-3.2033913,-9.715458,8.662317
1777,-3.1576285,-8.596813,4.870291
1778,-1.7874385,-6.922137,-1.8945173
1779,-2.1852453,-6.2922263,-8.381459
1780,-7.266105,-9.068499,-7.073483
1781,-13.446466,-13.723137,-2.8265216
1782,-16.77608,-19.726131,3.9170506
1783,-17.401505,-22.924139,6.6478596
1784,-8.442178,-15.922141,-7.1048884
1785,-3.437888,-7.533204,-10.036695
1786,-2.5636103,-5.029713,-6.896414
1787,-3.4019957,-4.8119664,-4.4913282
1788,-3.3804603,-4.85743,-3.228815
1789,-2.8031917,-4.7781677,-2.9653056
1790,-1.9839491,-4.653741,-4.196712
1791,0.6415756,-4.636991,-5.25075
1792,3.1926236,-5.925825,-8.307282
1793,2.656033,-10.503594,-6.343074
1794,0.08344969,-14.288442,-1.3244274
1795,-0.12981063,-16.200008,-5.473283
1796,2.3709881,-16.537695,-6.3622165
1797,6.048158,-15.297016,-7.54786
1798,5.4278193,-12.863216,-6.3047886
1799,4.546064,-11.0042925,-5.5501523
1800,3.8347974,-9.607781,-5.2049875
1801,3.5330026,-8.388339,-4.1030927
1802,2.4212375,-5.6383877,-6.9275208
1803,0.5096712,-7.0779696,-0.29910284
1804,0.6942177,-10.079466,5.1361938
1805,2.3327029,-11.456835,10.942976
1806,3.6191442,-10.572986,15.314663
1807,3.0610185,-7.9977107,16.239489
1808,0.8787641,-6.2252274,10.221839
1809,0.5455636,-5.465805,1.0710872
1810,-1.21017,-6.9391856,-1.1231312
1811,-3.4331024,-9.123833,-0.7160522
1812,-5.026124,-10.307083,-4.462614
1813,-6.480362,-11.190932,-0.5482555
1814,-6.5688963,-11.442478,4.415356
1815,-4.5424747,-12.676277,10.118948
1816,-3.4283166,-14.166408,8.8014
1817,-2.2402802,-16.054045,3.8234315
1818,-1.2843475,-16.183258,2.175375
1819,-1.6630118,-15.713666,2.0557337
1820,-0.3789633,-12.216257,-2.4239295
1821,3.1375887,-12.106187,-1.9639091
1822,5.6937213,-14.269299,0.20638095
1823,7.8281193,-15.929319,0.8578269
1824,8.043473,-16.290936,1.358525
1825,6.0625153,-14.286049,2.5516462
1826,2.548356,-13.8021,5.176872
1827,0.5841478,-14.115859,7.52453
1828,-0.6903293,-14.937494,9.809975
1829,-0.7645068,-16.50898,12.502499
1830,1.355235,-17.31626,7.7090764
1831,5.1667023,-17.158333,-0.06430711
1832,6.378667,-16.168901,-5.8447685
1833,5.0802617,-14.4490595,-8.343174
1834,2.0524435,-13.562519,-7.289136
1835,0.65353966,-13.574483,-5.878268
1836,-0.90119684,-14.207086,-5.401498
1837,-2.4272194,-15.677774,-6.2494545
1838,-4.491926,-18.605093,-7.3633137
1839,-5.6611195,-19.762024,-6.6185474
1840,-8.090134,-19.917856,-0.52193445
1841,-10.957632,-19.110577,3.4594233
1842,-9.213564,-15.998712,0.67118675
1843,-7.6133633,-13.095619,-2.8695927
1844,-15.5545435,-12.1301155,-7.54786
1845,-14.52204,-10.275977,-0.6559325
1846,-12.325429,-9.53809,-2.062314
1847,-5.994021,-5.7652073,-1.1757733
1848,-4.7267222,-3.9445682,-1.0058829
1849,2.7089744,-4.1554356,-4.7572303
1850,3.8754754,-4.996214,-4.476971
1851,7.610073,-4.9603214,-3.295814
1852,7.7775707,-5.468198,-3.624229
1853,7.303493,-4.553242,-3.7247276
1854,4.4336014,-3.566203,-2.7520452
1855,2.5938199,-2.737389,-2.524428
1856,1.8655044,-0.6053841,-3.0155547
1857,1.7626129,1.2990036,-3.5210385
1858,2.277668,2.3434706,-3.2144582
1859,2.0261226,2.7939196,-4.2038903
1860,2.8334012,3.0406795,-3.379862
1861,2.6201408,2.7317061,-5.825626
1862,0.485743,2.5902305,-5.8280187
1863,-3.1049864,-0.0065802624,-0.54346985
1864,-4.540082,-4.2272205,9.2997055
1865,-8.581261,-9.988539,18.987047
1866,-16.333109,-18.847067,28.84458
1867,-15.7387905,-25.475485,25.021448
1868,-13.393825,-26.275585,16.847864
1869,-9.045767,-22.612772,8.777472
1870,-5.2680984,-14.583057,6.5928245
1871,-4.7674,-9.128618,4.822435
1872,-3.6894333,-5.769993,3.629613
1873,-2.352743,-3.3385859,2.9826534
1874,-2.0437696,-1.5131612,-2.5148566
1875,-3.3278182,-1.6498512,-9.710972
1876,-7.9654074,-6.268298,-8.278568
1877,-11.855838,-12.115758,-2.3377876
1878,-14.795121,-22.2368,11.704791
1879,-14.773586,-30.553953,-3.664907
1880,-7.278069,-23.939892,-14.473287
1881,-1.0570294,-10.1802635,-11.042876
1882,-3.3397822,-8.110473,-6.958627
1883,-2.8223343,-7.533204,-1.2765709
1884,-1.7970098,-6.713961,-3.5234313
1885,-1.1958131,-5.563911,-4.3354955
1886,0.24616162,-4.7805605,-4.888836
1887,4.0334015,-4.15065,-7.478468
1888,1.463211,-9.53809,-4.438686
1889,-0.7716853,-12.860824,-0.9699905
1890,-4.1494536,-15.088541,-2.9078777
1891,-1.5840486,-15.553348,-4.6731825
1892,2.3494527,-15.30898,-6.172884
1893,4.462315,-13.864313,-7.205387
1894,4.7114677,-12.216257,-5.93091
1895,4.7856455,-9.815957,-4.8003016
1896,4.9175496,-7.964211,-4.5894337
1897,4.761717,-6.3424754,-4.5822554
1898,3.9831524,-4.5388856,-6.2662044
1899,2.1601207,-6.9990063,0.82672024
1900,2.0021944,-9.612567,4.281059
1901,2.8525436,-10.879566,7.579565
1902,3.132803,-10.352547,9.263813
1903,2.4212375,-8.62792,9.536894
1904,2.7185457,-5.7436714,5.725426
1905,0.8452646,-5.992824,5.747261
1906,-1.957628,-8.953643,6.38435
1907,-6.561718,-12.657134,4.753043
1908,-9.390931,-13.385449,5.0955157
1909,-7.3043904,-13.121941,4.9902315
1910,-2.9207392,-13.045071,7.263413
1911,-1.7419748,-13.660924,4.4656053
1912,-3.2033913,-13.648959,2.417349
1913,-3.95055,-13.279866,1.8711873
1914,-1.7778672,-12.024831,-0.4334
1915,2.265704,-11.531311,-1.4057833
1916,4.0310087,-13.064214,-0.9457632
1917,6.261419,-14.930316,-0.21774685
1918,7.5813594,-16.104294,-0.2105684
1919,7.396813,-15.493228,1.1934203
1920,5.401498,-13.92204,3.3227334
1921,1.7985053,-13.0666065,6.4609203
1922,-0.23509483,-12.836895,8.86122
1923,-0.6329016,-13.627424,9.35474
1924,1.1279168,-15.122041,8.382058
1925,5.4493546,-15.689738,1.6962122
1926,6.352346,-16.544872,-2.3186452
1927,6.9224358,-15.883856,-6.014659
1928,5.101797,-14.5615225,-7.550253
1929,1.6597216,-14.063217,-6.6281185
1930,-0.3717848,-14.384154,-5.02074
1931,-1.9935204,-14.932709,-4.970491
1932,-3.382853,-16.32952,-4.4554358
1933,-6.4683976,-19.151255,-4.8792644
1934,-8.382357,-21.08675,-2.4430718
1935,-9.27817,-20.897717,-1.8729819
1936,-9.402896,-19.127327,-1.3794622
1937,-8.681759,-16.386948,-3.2240293
1938,-11.855838,-13.821242,-4.6707897
1939,-15.369997,-11.222338,-2.1867409
1940,-13.800903,-9.789636,-8.268997
1941,-6.6888366,-10.27837,-8.153842
1942,-4.566403,-7.5499535,-2.1891336
1943,-1.6558332,-4.8598228,-0.8883354
1944,0.1480559,-4.677669,-1.5520446
1945,3.7244284,-5.278866,-3.394219
1946,4.234698,-4.895715,-2.4239295
1947,6.6421766,-5.494519,-3.909274
1948,6.632605,-5.556732,-4.747659
1949,4.098307,-4.4859443,-3.4444683
1950,1.5613167,-3.2644083,-2.646761
1951,-0.71665037,-1.8511474,-2.946163
1952,-0.15613168,-0.035294134,-3.2359936
1953,0.3924229,1.2056835,-3.7630126
1954,1.0223335,1.524228,-3.8108692
1955,1.6836498,1.2822539,-4.246961
1956,2.047658,1.4715859,-4.1871405
1957,1.4847465,1.6271194,-5.8615184
1958,-0.1680958,0.2856432,-1.8729819
1959,-1.7252251,-1.1180464,3.571886
1960,-3.152843,-3.7220356,11.633006
1961,-7.596614,-9.399306,25.361526
1962,-14.236996,-16.798811,24.238096
1963,-11.280962,-20.811275,19.897217
1964,-9.225528,-20.109581,10.820643
1965,-8.341679,-18.633808,7.838289
1966,-8.289037,-15.433407,6.9041905
1967,-7.5583286,-11.552847,5.663213
1968,-8.638688,-11.229517,4.592425
1969,-13.111173,-15.986747,12.761222
1970,-11.000703,-18.648165,7.9390864
1971,-8.509176,-19.781466,1.8233309
1972,-6.971489,-17.548662,-7.45454
1973,-3.9026937,-11.143076,-11.474183
1974,-1.2412767,-1.1611172,-10.087243
1975,-2.0581267,0.4989035,-9.2126665
1976,-2.5707889,-0.35862428,-5.135596
1977,-2.9733813,-1.9971097,-2.088635
1978,-2.8223343,-3.0343983,-3.8084764
1979,-2.6473591,-4.8239303,-6.8051877
1980,-2.3814569,-5.9952173,-7.943274
1981,-3.4307094,-8.709276,-10.216455
1982,-2.7529426,-10.019646,-9.749257
1983,-2.0461624,-10.767104,-7.773084
1984,3.1639097,-13.948361,-3.9260237
1985,4.057629,-18.36312,-3.1929228
1986,-1.9959131,-21.527628,-2.8624141
1987,-3.3924243,-21.822243,-4.8290153
1988,0.40438703,-20.828026,-6.5105715
1989,1.7506489,-16.801205,-6.958627
1990,2.2728825,-13.284652,-5.209773
1991,1.8559331,-10.606485,-4.057629
1992,2.4308088,-6.1005015,-4.54397
1993,2.0715861,-7.502097,7.5293155
1994,4.241876,-8.43141,11.824432
1995,6.107979,-7.058827,15.995122
1996,6.1992054,-6.1845493,13.937295
1997,4.5942197,-5.7987065,8.983554
1998,4.6468616,-4.555635,2.1945174
1999,4.512564,-4.136293,-1.4488541
2000,2.9123642,-4.3064823,-3.077768
