,ax,ay,az
501,-13.539787,-27.576384,8.899506
502,-8.95484,-17.24926,5.866902
503,-11.757732,-13.224832,4.130012
504,-14.4236355,-12.807882,1.7105691
505,-16.443178,-16.511374,-5.9452667
506,-15.808482,-17.821743,-10.302597
507,-17.870796,-19.491335,1.4446666
508,-11.874981,-18.272192,6.0777693
509,-4.8562336,-13.984254,-9.174381
510,0.23659034,-7.231409,-12.171092
511,1.3698909,-4.572385,-9.219845
512,-0.17766708,-2.8019953,-5.0327044
513,0.21266212,-2.3012972,-4.388138
514,1.0175478,-1.9468603,-6.323931
515,7.279565,-0.64606214,-11.550753
516,11.246266,0.22821546,-16.643578
517,5.4876394,-5.619245,-11.280065
518,-0.45792642,-8.920144,-7.9337025
519,-2.8031917,-15.011971,-3.935595
520,2.1385853,-18.023039,-1.492224
521,3.7459638,-19.168005,-3.0203404
522,2.8334012,-14.856138,-9.296714
523,0.90508515,-13.627424,-8.886943
524,0.104985096,-12.664313,-7.2580295
525,-0.4866403,-11.713166,-5.619544
526,-1.1503495,-11.092827,-4.5128636
527,-2.376671,-10.096216,-2.6635108
528,-2.2546372,-7.8684983,1.3968102
529,-2.5995028,-7.8924265,8.298309
530,-1.5023935,-8.690134,10.885549
531,-0.38374892,-8.519944,12.219846
532,-0.15373886,-8.335697,10.087841
533,-0.15373886,-7.353443,7.77129
534,-0.7286145,-5.4035916,7.7569327
535,-4.8179483,-7.3582287,6.8300133
536,-6.2431736,-8.143971,-0.6873383
537,-9.098708,-8.606385,6.0370917
538,-7.9678,-8.66142,8.540283
539,-6.2862444,-11.152647,2.2737796
540,-6.8276205,-14.729319,3.6511483
541,-7.349854,-17.165512,2.3551357
542,-3.749553,-16.054045,1.9549361
543,-0.40767714,-14.281262,2.3192434
544,1.7458632,-13.981861,2.1275184
545,4.282554,-13.72553,0.5033901
546,5.7655063,-13.885849,-0.26799613
547,7.8520474,-13.550554,0.53210396
548,6.8339014,-14.005789,2.3001008
549,5.5570316,-14.810675,3.1265218
550,3.4633117,-15.45255,5.708677
551,1.3818551,-15.53899,8.044371
552,-0.3502494,-15.807285,8.652746
553,-1.183849,-16.46591,4.8152566
554,-1.1144571,-16.85893,1.7491534
555,-1.9145572,-16.736597,-3.664907
556,-0.18723837,-15.167504,-8.992527
557,-0.44117668,-14.309977,-10.19492
558,-2.1708884,-14.326727,-6.855736
559,-5.296812,-15.380765,-4.438686
560,-8.444571,-18.147467,-2.2178476
561,-11.26182,-22.155146,-1.9495523
562,-14.315959,-27.662525,-2.728117
563,-15.223736,-25.21676,-0.27517462
564,-18.335602,-20.183758,-3.025126
565,-18.134306,-14.302798,-4.167998
566,-16.366608,-10.247263,-5.0303116
567,-8.35125,-8.749954,-5.983552
568,-5.009374,-6.7019973,-11.002198
569,-3.3661032,-2.277369,-4.4482574
570,-3.2153554,-1.2783655,-0.31106696
571,1.3986049,-2.2797618,-2.0599213
572,6.6110697,-3.024827,-2.2609184
573,9.114262,-4.7829533,-3.4372897
574,7.5382886,-5.7987065,-4.2708893
575,3.7965121,-3.554239,-4.546363
576,0.7540382,-1.0462617,-4.651647
577,-0.2832504,0.92542416,-4.1222353
578,-0.22313072,2.9111679,-3.5784662
579,0.3804588,4.619344,-3.3990045
580,0.98644114,5.6614184,-2.088635
581,3.144767,5.812166,-8.288139
582,3.9807596,5.5366926,-11.4191475
583,1.599602,5.5247283,-10.226027
584,-1.3947165,2.7269206,-4.2852464
585,-3.0188448,-0.2748755,0.5943173
586,-3.5673995,-2.0832512,4.2858443
587,-5.4239306,-9.3200445,24.664318
588,-13.003197,-19.168005,32.36113
589,-18.503399,-25.48027,23.10001
590,-18.088842,-31.052258,20.75983
591,-9.318848,-26.833712,10.49492
592,-6.686444,-18.655342,8.420642
593,-6.61436,-10.985149,2.9467611
594,-6.233602,-5.0682974,1.3944174
595,-7.2732835,-3.8081772,0.24945176
596,-12.023635,-8.608778,-0.16271193
597,-12.320643,-14.808282,-0.72323066
598,-13.034303,-17.426628,-3.406183
599,-12.320643,-20.178972,-0.8380861
600,-10.375279,-24.478874,6.6909304
601,-4.9806604,-20.595922,-4.610969
602,-3.4450665,-10.747961,-8.882157
603,-3.0355947,-6.047859,-6.5105715
604,-2.0676978,-4.4021955,-4.5224347
605,-1.483251,-3.5327036,-3.7510486
606,1.3866407,-2.1095722,-5.2483573
607,8.676076,0.1061815,-15.946668
608,5.844469,-3.525525,-14.751153
609,-1.820938,-7.95464,-7.099804
610,-3.3182468,-10.659127,-3.1019955
611,-2.5851457,-12.417553,-0.541077
612,-0.77677006,-13.574483,2.1155543
613,5.209773,-13.1027975,-5.5429735
614,4.5388856,-12.158829,-10.233205
615,1.1446666,-11.330015,-8.355139
616,0.13848461,-10.017253,-5.9261246
617,-0.939482,-9.276974,-4.2708893
618,-1.2699906,-8.680562,-3.1259236
619,-1.4760724,-8.019546,-2.1005993
620,-1.3683954,-5.736493,-0.5267201
621,-1.6366907,-3.7483566,1.9669002
622,-2.8438697,-5.925825,3.7660038
623,-3.3230324,-7.5882387,4.019942
624,-2.8749764,-9.078369,3.9361932
625,-2.8438697,-9.962218,5.349454
626,-3.3445678,-9.926326,8.0970125
627,-4.221238,-8.8746805,12.449856
628,-4.8681974,-9.265009,4.7745786
629,-6.6215386,-11.255837,3.0810583
630,-6.2383876,-12.362518,-2.2226331
631,-5.8887367,-13.989039,3.2246277
632,-5.4000025,-14.453845,6.5374904
633,-5.6204414,-13.636995,3.979264
634,-5.658726,-12.791133,2.5755744
635,-3.0068808,-12.575779,2.8606195
636,0.29162526,-12.98525,2.6808586
637,3.4393835,-13.576876,2.5755744
638,7.5239315,-14.305191,0.5560322
639,9.066405,-15.181862,1.2269198
640,8.621041,-14.858531,4.3815575
641,6.309275,-14.115859,5.919544
642,3.9520457,-13.591232,6.3197436
643,1.6716857,-12.899109,7.630113
644,-0.16091733,-13.366307,8.8085785
645,-1.8810577,-14.192728,3.8641095
646,-1.2987045,-14.88246,-0.9314062
647,0.0017946169,-15.754344,-6.5440707
648,-1.4330016,-15.550955,-7.2963142
649,-2.554039,-15.562919,-7.2245297
650,-3.1576285,-15.943676,-5.4110694
651,-4.393821,-16.810776,-4.189533
652,-6.652645,-19.105791,-3.257529
653,-10.447363,-24.10051,-4.380959
654,-11.405389,-27.296124,1.1715858
655,-12.584153,-25.338795,2.5636103
656,-13.729119,-19.366909,-1.0776675
657,-13.942379,-14.400904,-4.3378882
658,-12.073884,-10.067502,-4.3115673
659,-8.667402,-8.912965,-5.6243296
660,-5.7951174,-7.1617184,-12.401102
661,-4.8011985,-1.8846469,-3.350849
662,-2.879762,-0.08554341,-1.0417751
663,0.12891331,-0.7851449,-1.9710877
664,0.24376881,-1.8101703,-2.929413
665,6.0601225,-3.4920256,-2.9772696
666,5.9668026,-3.9661036,-3.8276188
667,5.142774,-3.772285,-3.8276188
668,2.4526432,-2.7948167,-4.1871405
669,0.77796644,-1.326521,-3.3990045
670,0.4833502,0.13968103,-3.964309
671,-0.4435695,1.5146568,-3.7007992
672,-0.90358967,2.3841486,-3.3388848
673,0.03798606,3.5653057,-4.215854
674,1.2308081,3.6514473,-8.094022
675,1.8583258,4.4539404,-9.287143
676,0.55752766,3.534199,-5.253143
677,-1.1623136,1.1626127,-1.1327025
678,-3.6559339,-4.8885365,9.896116
679,-4.532903,-9.499805,21.801905
680,-13.5685005,-21.321545,31.922647
681,-15.566507,-26.165216,23.677578
682,-14.23221,-28.740492,17.022839
683,-8.751151,-23.350658,9.613464
684,-7.402496,-17.277973,7.900801
685,-8.195417,-11.528918,6.9711895
686,-9.817153,-10.177871,3.1839497
687,-10.727622,-12.458231,-8.434102
688,-10.820942,-15.057435,-13.589438
689,-15.956837,-17.335402,-9.064311
690,-18.893728,-19.996819,2.4077778
691,-12.200704,-19.788643,4.927719
692,-4.2981076,-12.228221,-12.880265
693,-0.25692934,-6.8575306,-11.934203
694,-1.3779668,-4.5412784,-7.4306116
695,-0.57547385,-3.499204,-5.6147585
696,1.2284154,-2.725425,-6.5512495
697,9.979267,-0.011365907,-15.448362
698,8.872586,-2.64377,-15.3691
699,2.3327029,-6.78096,-11.634501
700,-3.7304106,-12.616456,-2.888735
701,-1.6295122,-15.769,-2.2800608
702,1.1685947,-16.2694,-0.9508479
703,4.5508494,-16.303198,-7.461718
704,4.3498526,-14.978472,-12.216855
705,0.8333005,-13.519448,-8.647362
706,0.55513483,-11.945569,-6.218348
707,0.75643104,-9.859028,-4.6899323
708,1.2092727,-8.6757765,-4.2541394
709,0.30149564,-8.096115,-2.8166513
710,-1.7491534,-6.8455663,-0.69930243
711,-2.4942186,-5.885147,1.5023935
712,-1.9935204,-7.183254,2.7478578
713,-0.81266236,-7.899605,3.8835511
714,-0.369392,-8.699705,4.3743787
715,0.13130614,-8.666205,5.5459647
716,-2.3841486,-8.795418,15.520745
717,-6.8108706,-9.782457,18.23241
718,-8.066205,-11.833106,6.9209404
719,-6.645467,-13.0259285,4.0773697
720,-5.510072,-15.119648,4.2667017
721,-5.1867423,-14.673985,5.9099727
722,-5.8286166,-13.181761,2.8917263
723,-4.834698,-12.020045,0.71665037
724,-2.9685955,-10.72164,-0.4549354
725,-1.4449657,-11.64856,-1.8658035
726,1.1135598,-13.013964,-0.30149564
727,6.539285,-15.002399,0.8578269
728,9.722936,-15.428621,0.910469
729,8.896515,-14.6022005,2.2567308
730,6.067301,-13.641781,3.1767712
731,4.345067,-12.815061,4.2595234
732,1.9184456,-14.14218,6.7722864
733,0.7612167,-16.166508,7.663613
734,0.1265205,-17.323439,5.895616
735,1.0223335,-18.003897,0.49142596
736,-0.73100734,-18.54288,-5.305785
737,-1.4449657,-16.552052,-7.9648094
738,-2.0318055,-13.720744,-5.8040905
739,-4.58076,-13.898112,-4.7309093
740,-6.348458,-14.403296,-3.7486558
741,-6.937989,-14.556737,-3.9690945
742,-8.070991,-16.085152,-3.0323045
743,-12.12174,-20.394625,-3.0323045
744,-13.894523,-23.204397,-3.4325042
745,-16.828722,-23.252254,-2.2875385
746,-18.244675,-18.758533,-0.16031912
747,-15.314962,-13.984254,-0.2416751
748,-14.663218,-10.558629,-2.1723838
749,-8.240881,-7.46112,-6.8796644
750,-3.7037904,-8.330911,-12.144772
751,-0.898804,-5.398806,-2.7376883
752,3.865904,-3.5422747,-1.8681962
753,7.691429,-5.0177493,-4.134199
754,5.736792,-5.889933,-1.7653049
755,8.956335,-6.2611194,-2.8528428
756,8.216056,-5.98086,-5.118846
757,5.3700924,-3.7770705,-4.436293
758,2.8788648,-2.3252254,-3.9667017
759,1.1398809,-0.51445687,-4.215854
760,0.81864446,1.2966107,-4.141378
761,0.5455636,3.4477584,-3.8730826
762,0.40438703,4.6672006,-5.511867
763,1.9950159,5.426623,-7.5622168
764,1.7386848,5.354539,-8.719446
765,-2.3865414,3.7591243,-7.2508507
766,-2.7433712,2.3865414,-3.5760734
767,-2.1828525,-0.9454641,0.3164508
768,-1.8714864,-5.391628,8.372486
769,-5.9270215,-11.983854,23.751757
770,-15.458531,-20.310577,27.771399
771,-16.349857,-23.288446,23.919254
772,-17.018053,-25.008287,19.329521
773,-14.105091,-21.994825,10.396814
774,-10.69173,-16.070795,7.1485577
775,-8.945269,-12.973287,9.055338
776,-8.916554,-14.468203,-3.8371902
777,-8.1738825,-15.306587,-13.136597
778,-12.842877,-18.430119,-6.0026946
779,-15.487246,-19.678274,-2.2178476
780,-11.359925,-17.730816,3.4307094
781,-4.8658047,-14.063217,-1.9974087
782,0.55752766,-7.125826,-12.521043
783,-0.7118647,-4.9459643,-9.08824
784,-1.7180467,-4.3088756,-6.340681
785,-1.6582261,-3.6930227,-4.7691946
786,0.31585258,-2.8283165,-6.278168
787,8.367103,-0.95742816,-14.099708
788,9.782756,-2.385345,-14.68894
789,1.1159526,-7.341479,-7.969595
790,-3.6846478,-13.814064,-3.621537
791,-0.8964112,-18.52613,-2.5558336
792,1.218844,-19.405193,-1.5233307
793,5.2983074,-17.49602,-7.4808607
794,3.949653,-15.311373,-10.554143
795,0.7372885,-13.579268,-7.648658
796,-0.22313072,-11.524133,-5.425426
797,-0.39571303,-9.873384,-4.3905306
798,-0.44117668,-8.64467,-3.5784662
799,-2.3336003,-7.327122,-1.329213
800,-3.0667014,-5.5160546,0.0840479
801,-2.7194428,-6.050252,2.187339
802,-3.1671999,-8.742776,3.6104703
803,-2.6859434,-9.387342,4.6932225
804,-2.228316,-9.08794,5.2226343
805,-1.9025931,-8.43141,6.8057857
806,-3.0978081,-7.4276204,11.642578
807,-6.8635125,-7.650452,9.769297
808,-9.520144,-8.896215,8.250452
809,-7.484151,-10.1683,4.007978
810,-3.1743784,-12.5805645,2.8989046
811,-1.8065811,-14.286049,4.5278187
812,-2.9255247,-15.141184,4.7506504
813,-4.573581,-13.873885,3.6248271
814,-3.0643084,-12.261721,1.8400806
815,1.1853445,-11.468799,1.9525433
816,3.0753753,-12.803097,2.3790638
817,6.3164535,-14.178371,3.6463625
818,9.200702,-15.184255,2.8175488
819,9.174381,-14.930316,3.6631124
820,6.879365,-12.836895,4.8918266
821,5.662615,-11.322837,4.944768
822,3.0897322,-10.335797,5.816653
823,0.46899325,-9.978968,6.405885
824,-1.361217,-10.922637,4.9253263
825,-2.71705,-13.040285,2.5325036
826,-2.9733813,-15.299409,-2.4646072
827,1.07019,-17.920147,-7.8831544
828,2.2704897,-19.333408,-8.42453
829,0.9290134,-20.138294,-5.633901
830,-2.134996,-20.243578,-5.1068816
831,-3.9963129,-20.979073,-5.1643095
832,-7.8649087,-24.634706,-5.3967123
833,-11.314462,-29.36083,-4.479364
834,-11.72872,-29.851957,-3.9379878
835,-13.932808,-25.822744,-1.7940187
836,-15.305391,-17.941683,-3.3990045
837,-14.272888,-11.854642,-2.8166513
838,-13.120744,-9.133404,-2.9916265
839,-9.642477,-7.6600237,-5.727221
840,-2.9853454,-5.928218,-12.032309
841,-4.9902315,-2.9243283,-3.0203404
842,-2.8582265,-1.7934206,-0.08105687
843,0.5168497,-2.9338996,-1.532902
844,2.11705,-3.2979078,-1.2789637
845,6.908079,-4.651348,-1.6262221
846,6.759724,-5.6527443,-4.383352
847,5.8157554,-4.692026,-6.3382883
848,2.8405795,-3.309872,-5.185845
849,1.4273187,-1.9157536,-5.4613185
850,0.27726832,1.0929217,-4.831408
851,0.020937199,2.734099,-4.570291
852,-0.060418773,4.37737,-4.888836
853,1.7865412,4.85414,-4.469793
854,2.306382,6.154639,-7.576574
855,0.36370903,6.897311,-8.178069
856,-0.75254273,5.4792647,-5.2193446
857,-1.5693926,2.7915268,-1.9902302
858,-1.4330016,-1.1730813,3.612863
859,-3.0403802,-5.3772707,11.381461
860,-5.107779,-10.6017,24.020052
861,-10.523933,-16.504194,26.01058
862,-16.277775,-22.830818,15.647863
863,-15.659828,-26.10061,20.790937
864,-11.886945,-25.851458,13.314563
865,-6.3604217,-18.430119,7.7665043
866,-4.56401,-10.966007,3.9290147
867,-4.753043,-5.7197433,5.601
868,-5.723333,-4.447659,-0.43100718
869,-7.3163543,-6.0693946,-8.122736
870,-9.735797,-8.690134,-9.541081
871,-15.796517,-13.775779,-10.570892
872,-18.888943,-19.182362,-8.479864
873,-23.77329,-35.227432,34.19613
874,-13.69562,-35.869606,0.5608178
875,1.7291135,-11.440085,-16.85205
876,-0.7405786,-7.125826,-7.4138618
877,0.46899325,-4.41416,-5.0662036
878,3.2237303,-2.454737,-4.8122654
879,9.94816,0.10378868,-11.3422785
880,13.359129,0.5563313,-16.856838
881,3.8898323,-5.9353967,-9.219845
882,-3.7806597,-10.04836,-2.3018954
883,-5.366503,-13.299009,1.7850457
884,-3.1480572,-15.179469,-0.663111
885,-1.2053844,-16.535301,-0.3900301
886,4.7880383,-15.07897,-6.65444
887,4.450351,-14.903995,-9.066704
888,2.047658,-14.156537,-6.606583
889,0.7325028,-12.305091,-4.08395
890,0.485743,-10.335797,-3.624229
891,0.11455639,-9.420842,-3.3101711
892,-1.3947165,-6.6948185,-2.1364915
893,-1.2843475,-5.561518,-0.5195416
894,-0.88683987,-6.3951178,3.6343985
895,-0.2641078,-6.757032,4.808078
896,-0.05802595,-7.7150583,5.1696935
897,-0.7645068,-7.7608213,5.066802
898,-1.4258232,-7.561918,4.0414777
899,-3.7854455,-7.717451,3.327519
900,-7.131808,-8.558528,6.288637
901,-6.276673,-8.46491,6.7890363
902,-4.7506504,-8.810074,2.606681
903,-7.342675,-10.069895,13.709678
904,-5.854938,-12.429517,7.7210402
905,-4.9256253,-14.37219,2.1586251
906,-4.659723,-14.580665,1.4880366
907,-4.0154557,-13.941183,1.6124634
908,-0.21355942,-12.752848,2.0461624
909,4.2035913,-12.317055,2.6593232
910,8.201698,-12.192328,1.4928222
911,9.576674,-12.467802,0.1274178
912,9.991231,-12.676277,0.9346963
913,8.474779,-12.978072,5.0955157
914,6.218348,-13.785351,5.8429737
915,4.388138,-14.235799,5.9817576
916,2.1457636,-15.186647,6.681359
917,-0.18005991,-15.541383,7.811968
918,-2.4224339,-16.835003,5.81426
919,-1.8810577,-17.474485,-1.2116655
920,-1.8786649,-17.560627,-6.9538417
921,-0.55393845,-16.492231,-8.515757
922,-1.1647065,-16.063616,-8.094022
923,-3.4307094,-16.171293,-5.7897334
924,-6.0394845,-17.167904,-3.8973098
925,-8.56451,-19.9035,-1.7844474
926,-12.854841,-25.53052,-2.1915264
927,-14.241781,-28.10101,-4.08395
928,-15.987944,-25.245476,-2.5893333
929,-15.84916,-18.25305,-0.7543373
930,-15.425032,-13.303795,-2.5869403
931,-14.045271,-10.170692,-2.1604197
932,-7.153343,-8.663813,-7.574181
933,-1.2699906,-7.5068827,-13.632509
934,-1.3229318,-3.8775692,-5.1906304
935,0.0041874396,-2.1888344,-2.905485
936,1.5110675,-3.0846474,1.3968102
937,4.816752,-3.0008986,-1.3746766
938,8.012366,-4.6896334,-2.0838494
939,6.673283,-5.1257253,-3.3029926
940,3.1136606,-4.0405803,-4.6899323
941,1.8056837,-2.7206392,-3.964309
942,1.2906287,-0.20757736,-4.08395
943,2.181955,1.7231314,-4.1871405
944,1.7841483,3.2730823,-4.4913282
945,2.3901308,4.468297,-4.354638
946,2.9820552,5.1272206,-5.3105707
947,3.8611186,4.7581277,-10.47518
948,0.71336025,4.9259243,-7.8424764
949,-1.7347964,2.3315065,-3.4851463
950,-2.82712,-0.5192425,2.1323042
951,-3.9146578,-3.2165518,9.2997055
952,-7.919944,-9.399306,26.190342
953,-14.660825,-17.39313,27.208487
954,-16.685152,-20.6366,23.735006
955,-16.800007,-29.04468,16.210775
956,-15.163916,-29.775387,10.322637
957,-11.388639,-21.081964,4.4081774
958,-7.9223366,-11.444871,1.8687944
959,-6.585646,-6.740282,4.7745786
960,-4.7674,-4.1051865,-6.9299135
961,-4.6142592,-3.0894332,-12.228819
962,-9.06491,-5.547161,-7.6510506
963,-15.657435,-11.306087,-3.9379878
964,-16.711473,-16.267006,0.58713883
965,-15.427424,-32.89922,13.074981
966,-5.026124,-24.76392,-19.098911
967,-0.70947194,-11.983854,-11.42154
968,-2.50379,-7.530811,-5.0805607
969,-0.5033901,-5.152046,-3.5760734
970,0.74446696,-4.272983,-4.074379
971,4.625326,-2.7110682,-9.866804
972,11.260623,-1.8077775,-17.563618
973,5.990731,-8.570493,-11.13171
974,-1.9959131,-14.022539,-5.5908303
975,0.15523437,-15.246767,-3.03709
976,1.314557,-15.519848,-2.4382863
977,3.9424744,-14.915959,-4.060022
978,5.3342,-12.099009,-6.096314
979,3.365206,-11.224731,-5.94766
980,1.7602202,-10.458131,-4.9103713
981,1.0606186,-9.552447,-3.7989051
982,0.042771704,-9.046964,-2.5316064
983,-0.93230355,-7.823035,-1.7434704
984,-1.7084754,-6.622735,-0.31585258
985,-1.5143577,-6.9559355,1.4039887
986,-0.61854464,-8.59442,2.7861428
987,0.104985096,-8.936893,3.3179476
988,-1.2149557,-8.560922,3.0329027
989,-2.4894328,-8.611171,3.0329027
990,-4.67408,-7.533204,8.353344
991,-7.172486,-7.6863446,10.444671
992,-7.9223366,-8.299805,8.827721
993,-8.942876,-10.366904,6.233303
994,-8.806484,-12.166008,10.288838
995,-5.9820566,-14.758033,4.8176494
996,-2.8582265,-15.680167,2.9108686
997,-2.4439692,-14.309977,2.9922247
998,-3.3732817,-12.113365,1.1668001
999,-1.9935204,-10.527522,0.55363935
1000,1.8200407,-10.86521,2.172982
1001,5.2959146,-12.393625,2.3455644
1002,7.940582,-13.866706,1.7081763
1003,8.889337,-15.093327,1.5574285
1004,8.597113,-15.093327,2.8773692
1005,6.501,-14.164015,4.9471607
1006,5.5043893,-13.574483,5.624928
1007,4.4671006,-12.786346,6.3532434
1008,1.9088743,-13.339687,6.8802624
1009,0.36610186,-14.446667,4.185346
1010,0.4019942,-15.515062,-0.31106696
1011,1.2978072,-16.717455,-6.1968126
1012,1.1829517,-16.089937,-6.9394846
1013,-1.265205,-15.493228,-6.917949
1014,-2.652444,-15.617953,-5.274678
1015,-5.352146,-16.971394,-4.1222353
1016,-8.329715,-19.75006,-2.6946175
1017,-12.021242,-23.515764,-3.5066817
1018,-13.647763,-26.421547,-5.051847
1019,-15.573687,-25.741388,-5.8447685
1020,-16.903198,-20.42334,-1.3196417
1021,-16.021442,-14.139788,0.5416752
1022,-14.0357,-9.909575,0.12502499
1023,-12.207882,-8.237292,-2.3808584
1024,-7.9366937,-7.478169,-7.698907
1025,-0.1058824,-6.7594247,-14.530715
1026,-0.1058824,-6.7594247,-14.530715
1027,2.1915264,-2.4020948,-3.394219
1028,3.3173494,-4.011866,1.2699906
1029,4.896014,-3.7244284,0.32362926
1030,8.192127,-5.6336017,-1.4536397
1031,6.5512495,-6.1582284,-3.784548
1032,3.611966,-4.383053,-3.5593238
1033,1.3360924,-1.5777674,-3.4851463
1034,0.7588239,-0.20279172,-3.487539
1035,1.0127622,1.5577276,-3.8036907
1036,1.3528421,3.2105699,-3.9930227
1037,1.5110675,4.7365923,-3.3990045
1038,3.7339997,5.6949177,-7.346564
1039,3.4800615,5.1006007,-9.186345
1040,1.43689,4.211966,-7.737192
1041,0.102592275,1.3950156,-3.458825
1042,-2.9398818,-1.4700904,2.0006988
1043,-4.8059845,-4.636991,9.692428
1044,-7.1222367,-10.15155,25.926832
1045,-14.809479,-20.231615,30.748968
1046,-18.158234,-29.854351,23.531317
1047,-14.289638,-32.2379,16.347166
1048,-10.480863,-26.505596,9.565608
1049,-8.202596,-16.50898,5.2369914
1050,-6.8874407,-8.901001,2.3001008
1051,-5.7640104,-4.7542396,3.5359936
1052,-6.834799,-4.502694,-3.7127635
1053,-8.221739,-7.940283,-8.482257
1054,-8.985947,-10.038788,-7.830512
1055,-15.564115,-17.033607,-7.1455665
1056,-14.931513,-21.72653,7.074081
1057,-10.983953,-24.996323,4.156632
1058,-1.9456639,-14.228621,-13.311571
1059,-0.34307095,-7.9187474,-9.265608
1060,-1.8738792,-5.75085,-6.4052873
1061,-1.3444673,-4.8622155,-3.9260237
1062,-0.7118647,-4.462016,-4.033701
1063,3.1495528,-2.902494,-9.157631
1064,10.242777,-1.7527425,-15.757336
1065,5.128417,-8.606385,-11.81187
1066,-1.9839491,-14.638093,-6.6975107
1067,1.4153546,-16.612171,-3.0900314
1068,2.507678,-16.566708,-2.567798
1069,6.055337,-14.5926285,-4.898407
1070,5.0252266,-11.454442,-5.0542397
1071,3.106482,-9.643674,-5.2073803
1072,2.2010977,-8.570493,-4.3737807
1073,1.6235301,-8.053044,-3.8467615
1074,-0.19202402,-7.739286,-2.7927232
1075,-1.1814562,-7.5236325,-1.7844474
1076,-2.0700908,-6.574878,-0.86919284
1077,-2.434398,-6.050252,1.1572288
1078,-2.3168504,-8.009974,4.3935213
1079,-2.053341,-8.915359,6.0080786
1080,-1.3058829,-9.585947,6.7387867
1081,-0.5347959,-9.078369,5.0572305
1082,-1.0833504,-8.742776,4.386343
1083,-2.5899315,-8.7164545,4.578068
1084,-5.2082777,-9.245867,7.481459
1085,-6.437291,-10.153943,4.4321055
1086,-6.6622167,-11.672488,1.3848461
1087,-5.3593245,-13.133904,6.209375
1088,-2.5516462,-13.816457,7.9510508
1089,-3.0595229,-14.341084,2.9467611
1090,-3.7615173,-13.557734,2.6712873
1091,-5.3015976,-13.076178,2.3862424
1092,-3.4259238,-12.329019,1.047159
1093,0.7923234,-13.133904,0.70947194
1094,5.9500527,-14.164015,0.4316054
1095,10.034302,-15.055042,0.16331014
1096,10.146765,-15.000007,0.08883354
1097,7.895118,-13.7063875,2.1251256
1098,4.644469,-12.520445,3.7636108
1099,2.6105695,-12.546765,5.555536
1100,-0.15373886,-13.294224,8.892327
1101,-1.5693926,-13.69203,9.817153
1102,-3.4163525,-15.582061,8.255239
1103,-2.5995028,-16.121044,2.7071798
1104,-1.0833504,-16.14258,-1.288535
1105,2.1843479,-16.331911,-6.860522
1106,2.3231318,-15.522241,-9.14806
1107,0.44027936,-14.398511,-8.496614
1108,-2.4152553,-14.676377,-5.631508
1109,-5.1053863,-16.477875,-4.462614
1110,-8.039884,-18.998114,-4.3235316
1111,-9.304491,-21.937399,-2.3401806
1112,-11.103595,-24.090939,-1.7291135
1113,-12.967304,-23.417658,-1.0489537
1114,-14.577076,-20.705992,-0.22492532
1115,-14.253745,-14.115859,-2.3784657
1116,-13.007982,-10.223334,-2.0288146
1117,-7.318747,-8.529515,-3.2527432
1118,-3.531507,-8.007581,-6.227919
1119,-1.3444673,-4.1171503,-4.6875396
1120,-1.0785648,-1.9205393,-0.8380861
1121,3.5904303,-2.8019953,-1.463211
1122,4.019045,-3.3649068,-0.77587277
1123,6.0026946,-3.9852462,-1.6716857
1124,6.489036,-4.4931226,-2.970091
1125,4.6468616,-3.8656049,-3.638586
1126,3.2766714,-2.9458637,-3.8467615
1127,1.6836498,-1.2975081,-3.2264223
1128,1.2044871,-0.08075777,-3.6625142
1129,1.4488541,1.2008978,-4.584648
1130,1.1398809,2.178366,-4.6061835
1131,1.6235301,3.5004005,-5.2363935
1132,2.6536403,4.2502513,-7.792227
1133,1.1709876,3.7710886,-7.2149587
1134,-0.8341978,2.8106692,-5.863911
1135,-2.283351,0.18993029,-0.148355
1136,-2.8223343,-3.1085758,5.5675
1137,-6.554539,-10.853246,19.87329
1138,-14.014164,-19.493729,28.101908
1139,-15.774982,-21.45345,26.973692
1140,-15.137594,-28.028927,22.80061
1141,-11.518151,-26.258835,11.146666
1142,-6.96431,-17.507984,5.9410796
1143,-5.668298,-11.900105,4.755436
1144,-5.622834,-7.1162543,4.822435
1145,-6.209674,-7.434799,1.4641083
1146,-7.9941216,-9.914362,-4.3785663
1147,-10.171889,-13.656137,-6.5129642
1148,-12.93859,-17.637495,-8.307282
1149,-14.054842,-19.335802,-5.044668
1150,-10.47847,-18.61945,3.7468612
1151,-4.983053,-11.694023,-6.489036
1152,-2.2211375,-7.140183,-9.078669
1153,-2.7409782,-5.7652073,-6.949056
1154,-1.9887347,-5.2429733,-4.8098726
1155,-1.2699906,-4.9172506,-4.536792
1156,0.34456646,-4.7781677,-5.523831
1157,6.328418,-3.6188452,-11.680264
1158,6.1247287,-6.9173512,-11.991631
1159,-0.098703936,-12.599707,-8.451151
1160,0.8282157,-17.175083,-5.686543
1161,2.5603201,-17.60609,-3.7103705
1162,4.5508494,-17.60609,-4.6707897
1163,5.68415,-14.75564,-7.557431
1164,3.635894,-12.000604,-5.839983
1165,2.7352953,-10.287941,-4.2661037
1166,2.5746772,-9.140582,-3.906881
1167,2.0620148,-8.076973,-3.3317065
1168,-0.8772686,-7.1066833,-2.498107
1169,-2.4439692,-5.901897,-2.0312073
1170,-2.4631119,-6.9726853,1.8448663
1171,-1.5191432,-8.639884,5.2369914
1172,-0.44117668,-9.288938,6.897012
1173,0.0065802624,-8.326125,7.179664
1174,-1.1359925,-7.5499535,6.3388863
1175,-2.5253253,-6.7091756,5.2537413
1176,-4.3316073,-6.2204413,7.8646097
1177,-6.30778,-7.9091763,5.773582
1178,-6.4731836,-9.142975,3.2341988
1179,-7.115058,-10.309476,2.9371898
1180,-3.6894333,-11.72513,9.086445
1181,-1.8137596,-13.040285,6.1639113
1182,-2.5731816,-15.055042,0.8865408
1183,-4.525725,-14.314762,3.4977086
1184,-5.172385,-13.3639145,3.2676985
1185,-2.4511478,-12.427124,1.5789639
1186,1.8008982,-12.863216,1.9357935
1187,6.4217377,-13.310973,1.8951155
1188,9.98166,-14.240585,0.22552353
1189,10.465608,-13.960325,0.14416756
1190,8.937193,-13.6199465,1.4760724
1191,5.346164,-13.013964,3.7253258
1192,2.0859432,-12.592528,6.314958
1193,-0.9059825,-12.372089,7.426424
1194,-2.9566314,-12.491731,9.136694
1195,-3.600899,-13.042678,8.391629
1196,-4.4392843,-14.345869,6.7698936
1197,-3.641577,-15.150755,1.995614
1198,0.03798606,-15.936498,-2.7831519
1199,2.1074786,-16.121044,-5.636294
1200,3.7917266,-17.10569,-8.240283
1201,1.0486546,-17.534306,-6.8724856
1202,-1.2532408,-17.067106,-5.6482577
1203,-3.3206396,-18.281763,-5.5046883
1204,-5.8286166,-20.857038,-5.9237313
1205,-8.221739,-25.662125,-3.935595
1206,-9.860224,-25.980968,0.75972116
1207,-12.001801,-21.27369,-0.17706887
1208,-14.354244,-15.955641,-2.102992
1209,-13.482359,-11.593525,-3.1115668
1210,-9.395718,-9.293723,-4.7596235
1211,-4.779364,-7.478169,-11.550753
1212,-4.9136615,-3.513561,-4.2278185
1213,-3.0643084,-1.2759727,-2.2752752
1214,0.32063824,-2.926721,-2.1723838
1215,0.5312066,-3.022434,-0.53629136
1216,6.0625153,-3.3816566,-1.8729819
1217,6.119943,-4.4117665,-2.6443682
1218,6.02423,-4.7398825,-4.6707897
1219,3.894618,-3.5614173,-5.3368917
1220,2.5746772,-1.9827527,-4.4602213
1221,1.2882359,-0.6125626,-4.4339004
1222,-0.026919255,0.64037913,-4.4315076
1223,-0.4531408,1.6920247,-4.968098
1224,-0.33589247,2.2669003,-5.1260242
1225,-1.0304092,3.289832,-4.8601217
1226,-0.6376872,4.1018963,-6.256633
1227,-1.6534405,3.9173498,-6.3885374
1228,-1.8762721,2.935096,-3.909274
1229,-2.3383858,0.9062816,-1.1638091
1230,-1.9480567,-4.1817565,5.9410796
1231,-3.4019957,-10.5347,14.119449
1232,-6.98106,-15.955641,23.001905
1233,-16.428822,-27.178577,23.128725
1234,-19.86641,-33.01886,21.442383
1235,-14.174782,-28.055246,14.663218
1236,-6.1160545,-15.184255,6.8611197
1237,-4.880162,-11.497812,3.7348971
1238,-3.0523443,-5.5136614,3.6080775
1239,-2.0318055,-2.5528426,3.4211383
1240,-4.1374893,-4.814359,-6.2805614
1241,-4.295715,-6.2659054,-6.8243303
1242,-9.206385,-11.550454,-9.3613205
1243,-13.73869,-16.760527,-11.545967
1244,-15.611971,-23.738596,-2.0862422
1245,-11.386247,-27.511478,1.1309078
1246,-6.176174,-19.76681,-8.252247
1247,-2.1278176,-9.329616,-10.595119
1248,-1.0112667,-5.8250275,-5.7248282
1249,0.5072784,-4.3591247,-4.167998
1250,1.5780666,-3.5853457,-4.8385863
1251,7.030412,-2.2175484,-10.377073
1252,8.242376,-4.3615174,-11.615359
1253,0.4953143,-10.249656,-6.0364933
1254,-2.9207392,-13.617554,-3.5521452
1255,-0.87248296,-14.348262,-1.9974087
1256,1.3432708,-14.144573,-2.8337002
1257,4.4024944,-13.064214,-5.006383
1258,4.4024944,-12.106187,-5.9859447
1259,3.4944184,-10.680962,-5.281857
1260,2.5722845,-9.226724,-4.6707897
1261,1.6139588,-8.005188,-3.5306098
1262,0.5599205,-7.4036922,-2.9557343
1263,-0.35503507,-6.5198436,-2.376073
1264,-1.1192428,-5.2334023,-1.4416757
1265,-1.1694921,-4.9028935,0.24227329
1266,-1.1479566,-6.3137617,1.6866409
1267,-0.75254273,-7.731808,2.2232313
1268,-0.5922236,-7.858927,2.1681964
1269,-1.1718849,-8.141579,1.3848461
1270,-1.7180467,-9.075976,0.5703891
1271,-3.612863,-10.081859,5.0596237
1272,-7.345068,-11.59831,14.145769
1273,-7.359425,-12.657134,14.152947
1274,-6.084948,-13.193725,10.964512
1275,-4.892126,-14.470595,3.6774693
1276,-4.022634,-14.374583,1.6914265
1277,-3.016452,-12.731312,1.3058829
1278,-6.41097,-12.115758,1.346561
1279,-5.3904314,-11.392229,1.9381863
1280,-0.19680966,-11.677274,1.6698911
1281,3.5186458,-12.781561,1.4039887
1282,8.021938,-14.017754,0.41006997
1283,10.321739,-14.49213,0.40289152
1284,9.593424,-14.173586,1.7970098
1285,6.798009,-14.242978,3.9696927
1286,4.462315,-14.583057,5.6703916
1287,2.9892337,-14.951852,7.4359956
1288,0.24855445,-16.02264,8.082656
1289,-0.8964112,-16.581064,6.693323
1290,-0.328714,-17.153547,2.7335007
1291,1.2475579,-16.815561,-2.4095724
1292,1.3600205,-15.6873455,-6.2470617
1293,-0.13459627,-13.912469,-7.5693955
1294,-0.8533404,-13.761422,-6.8677
1295,-3.2847474,-15.004792,-5.576473
1296,-6.1307106,-17.584555,-5.1260242
1297,-9.115458,-20.248363,-4.936692
1298,-11.038988,-23.142183,-4.2708893
1299,-13.254742,-24.205793,-3.365505
1300,-16.41925,-22.471596,-1.1135598
1301,-16.761723,-17.064714,1.41356
1302,-15.923337,-12.1301155,-0.799801
1303,-13.712369,-8.718847,-2.7927232
1304,-11.019846,-7.8349986,-3.7989051
1305,-3.3445678,-7.3845496,-11.972488
1306,1.7362919,-3.1372895,-4.5128636
1307,3.1232316,-2.548057,-2.1747768
1308,5.0419765,-3.7531424,-1.6118652
1309,5.4876394,-3.566203,-1.6046867
1310,7.559824,-4.9052863,0.46989053
1311,6.7238317,-4.7976093,-1.9878374
1312,4.658826,-4.1793637,-2.8289146
1313,3.0083764,-2.9243283,-3.0972097
1314,2.4212375,-1.3911272,-3.2455647
1315,2.4332016,0.19232312,-4.0384865
1316,2.169991,1.1602199,-4.6875396
1317,3.3891342,2.6165516,-4.970491
1318,4.3235316,4.1904306,-5.6386867
1319,3.5306098,4.6002016,-8.678469
1320,-0.5515456,3.8479578,-5.959624
1321,-1.4042878,2.8513472,-3.9690945
1322,-2.446362,0.20907287,1.0136595
1323,-2.5803602,-3.649952,7.7090764
1324,-5.299205,-9.080762,17.65275
1325,-11.609078,-15.852749,25.7375
1326,-16.160526,-22.552952,23.595922
1327,-14.936298,-27.681667,17.944973
1328,-12.921841,-27.281767,10.020543
1329,-10.569397,-22.44976,6.573682
1330,-6.84437,-14.046467,2.4245276
1331,-4.918447,-5.439484,-0.35174492
1332,-4.7988057,-4.3375893,1.0423734
1333,-6.5114684,-5.614459,1.3489537
1334,-8.693723,-9.799207,-0.32542387
1335,-11.333605,-14.731711,-3.6000016
1336,-14.804693,-19.75245,-3.2886357
1337,-14.691931,-21.75046,1.6770695
1338,-13.290634,-25.980968,7.0262246
1339,-4.5616174,-17.4362,-6.42443
1340,-1.0208379,-6.771389,-8.738588
1341,-1.4473586,-5.563911,-7.993523
1342,-0.8365906,-4.0884366,-5.511867
1343,0.13130614,-3.6164522,-4.8673005
1344,4.4742794,-2.2558336,-8.395817
1345,11.085947,-0.9382856,-16.183558
1346,2.4092734,-6.6035924,-11.593824
1347,-2.6425736,-11.413764,-5.47089
1348,-1.8137596,-14.008182,-1.5783657
1349,0.5769694,-15.603597,-0.006879365
1350,1.6932211,-15.934105,-0.7304091
1351,6.203991,-14.556737,-5.770591
1352,4.6971107,-13.330116,-7.509575
1353,2.210669,-11.854642,-5.552545
1354,1.2116655,-10.735997,-4.127021
1355,1.0941181,-8.941679,-3.0801609
1356,0.37567315,-6.8838515,-3.2479577
1357,-0.44835514,-5.8393846,-3.7534413
1358,-2.1589243,-6.6708903,0.6134599
1359,-2.2546372,-8.82443,7.0262246
1360,-1.820938,-9.073584,8.478069
1361,-0.66161543,-9.267402,9.4890375
1362,-0.42921257,-7.9019976,7.5460653
1363,-1.1862419,-7.700701,5.069195
1364,-1.2795619,-7.542775,1.8185452
1365,-1.9217356,-7.9761753,0.8745767
1366,-3.7686956,-8.587242,4.2834516
1367,-5.0333023,-9.993324,4.6689954
1368,-5.5675,-10.467702,3.9960139
1369,-2.01027,-11.3683,6.0394845
1370,-1.4784653,-12.237792,7.3064837
1371,-2.14696,-13.327723,5.691927
1372,-4.889733,-13.533805,5.0476594
1373,-6.9041905,-14.115859,3.2413774
1374,-3.6870406,-13.471592,2.1275184
1375,0.11694921,-13.042678,1.9190438
1376,4.5918264,-13.351651,1.0615159
1377,8.877372,-14.286049,0.029012974
1378,9.691829,-14.501701,0.625424
1379,8.750254,-14.468203,2.391028
1380,3.8730826,-14.400904,5.5459647
1381,1.9471594,-14.729319,6.6622167
1382,-0.07956135,-15.515062,8.250452
1383,-2.2809582,-16.05883,8.432606
1384,-2.0820549,-16.166508,5.864509
1385,1.1111671,-16.190435,-0.6128617
1386,3.5641093,-15.934105,-5.00399
1387,3.2503505,-15.174683,-7.2341013
1388,0.811466,-14.484952,-7.0471616
1389,-1.7371893,-14.949458,-5.636294
1390,-3.7998023,-16.360626,-5.389534
1391,-5.9318075,-18.84946,-4.924728
1392,-8.298608,-22.71327,-5.672186
1393,-9.992128,-24.44059,-4.8912287
1394,-12.397214,-22.725534,-5.4637113
1395,-15.27907,-17.9031,1.1644074
1396,-15.4776745,-12.990036,1.0304092
1397,-14.203496,-8.512766,-0.9314062
1398,-11.769696,-7.1162543,-3.7630126
1399,-6.9906316,-6.47438,-7.3633137
1400,-0.98973125,-2.536093,-6.687939
1401,0.41874397,-0.29880372,-3.147459
1402,2.9482565,-0.81864446,-0.87637126
1403,2.819044,-2.248655,-0.7495517
1404,5.844469,-2.972185,-1.4297116
1405,7.221838,-4.5170507,-1.6286149
1406,5.6407804,-4.867001,-2.864807
1407,4.0719857,-4.1027937,-3.5090744
1408,2.5052853,-3.295515,-3.159423
1409,2.2226331,-2.370689,-3.3990045
1410,2.2274187,-1.1228321,-3.9116669
1411,2.2680967,0.024526432,-4.7165527
1412,2.2058833,1.3830515,-4.421637
1413,1.6477575,3.0885358,-7.016055
1414,1.1685947,3.6466618,-6.9825554
1415,-0.4962116,3.4980075,-6.40768
1416,-2.3312075,1.294218,-1.7315062
1417,-4.0106697,-2.545664,6.4992056
1418,-7.3785677,-8.747561,15.990336
1419,-12.399607,-16.873287,29.438599
1420,-15.475282,-24.692135,25.881369
1421,-14.253745,-30.57788,21.114267
1422,-10.234102,-27.365517,9.786046
1423,-6.5904317,-18.988543,6.588039
1424,-5.1029935,-12.937394,3.3035908
1425,-3.2967114,-4.708776,2.0820549
1426,-2.9853454,-2.631806,2.4293132
1427,-2.5803602,-1.1970096,-4.3522453
1428,-3.9577286,-2.44038,-11.522039
1429,-8.803793,-6.617949,-9.785448
1430,-12.792329,-10.625628,-10.151849
1431,-17.10928,-17.136797,-5.811269
1432,-23.979374,-30.889246,21.068804
1433,-15.990336,-36.180973,-4.2780676
1434,-2.7505496,-19.599312,-13.848162
1435,-1.7084754,-10.841281,-9.495318
1436,-0.831805,-7.272087,-5.9620166
1437,0.9840483,-5.8154564,-4.479364
1438,3.1519456,-5.2884374,-5.2145586
1439,10.635498,-4.5412784,-13.364214
1440,9.699007,-7.803892,-13.191631
1441,0.50009996,-14.456238,-5.298607
1442,0.4977071,-14.175979,-3.85394
1443,2.8812575,-12.142079,-3.28385
1444,4.182056,-11.006685,-4.3929234
1445,5.07069,-9.569197,-2.8022945
1446,5.212166,-8.230113,-2.7209384
1447,4.3857446,-7.6600237,-2.4454648
1448,3.187838,-7.109076,-2.6946175
1449,1.7650058,-6.160621,-3.5186458
1450,0.73011,-5.137689,-4.1751766
1451,-1.049851,-6.4552374,-0.96759766
1452,-1.4497514,-8.486444,1.3345969
1453,-0.2545365,-9.152547,2.8151557
1454,0.45942193,-8.778668,3.3756745
1455,-0.11306087,-7.6193457,2.1514466
1456,-1.7443677,-7.739286,1.0519446
1457,-2.8223343,-8.26122,0.41485563
1458,-4.336393,-8.575278,3.112165
1459,-8.391928,-9.911968,13.657035
1460,-7.867302,-10.47488,10.64836
1461,-4.712365,-12.597314,6.897012
1462,-4.147061,-14.683557,10.109377
1463,-2.420041,-15.028721,3.2006993
1464,-2.6883361,-14.376976,2.4939194
1465,-3.5673995,-13.047463,1.0184451
1466,-5.3425746,-12.379268,0.7405786
1467,-1.6414764,-11.607882,0.23748764
1468,1.8678972,-12.714562,0.8219346
1469,5.8803616,-13.713566,0.6975078
1470,9.476176,-14.391333,-0.16271193
1471,10.676176,-14.520844,-0.61764735
1472,9.250952,-13.840385,0.7860422
1473,5.614459,-13.694423,3.8739798
1474,2.6081767,-13.210475,5.5722857
1475,0.63918275,-13.098012,6.952047
1476,-1.4904294,-13.69203,8.362915
1477,-3.313461,-14.362618,8.015656
1478,-3.2177482,-14.376976,5.6871414
1479,-3.124129,-14.494523,3.095415
1480,1.6908283,-14.1879425,-2.8241289
1481,3.6382868,-13.86192,-6.02423
1482,4.2035913,-13.857135,-7.4856467
1483,0.0738784,-15.148362,-5.8615184
1484,-1.3277174,-15.797714,-5.3967123
1485,-3.6080775,-18.025433,-4.8529434
1486,-6.8635125,-21.431913,-5.796912
1487,-8.118847,-24.11008,-4.0815573
1488,-7.8290167,-24.28715,-1.7458632
1489,-10.01845,-22.51706,-1.2454642
1490,-14.203496,-18.241085,1.2293127
1491,-15.334105,-13.74228,-1.8801605
1492,-12.6320095,-9.746565,-2.8337002
1493,-5.519644,-8.295019,-5.0662036
1494,-1.7467605,-5.9545393,-6.227919
1495,-1.931307,-2.5097718,-1.5448661
1496,0.24376881,-2.900101,-1.1135598
1497,1.9734805,-3.8033917,-1.3531412
1498,3.9520457,-4.5003014,-0.19621146
1499,6.666105,-4.2777686,-1.7964116
1500,6.5057855,-4.948357,-3.6888351
1501,4.464708,-4.6082773,-4.395316
1502,2.8429725,-3.0487552,-4.191926
1503,1.9064814,-1.3313067,-3.8635113
1504,1.0630114,-0.18125631,-3.8347974
1505,0.63918275,1.2320045,-4.496114
1506,0.57936215,1.9651057,-4.814658
1507,0.485743,2.8226335,-5.145167
1508,0.18873389,4.499404,-5.6554365
1509,-0.25214368,4.7174497,-6.678368
1510,-2.1302104,4.1425743,-5.9141603
1511,-1.835295,1.7662022,-1.899303
1512,-1.4234303,-2.1071794,3.2748768
1513,-1.5840486,-7.3845496,10.2673025
1514,-6.27428,-13.615161,20.489141
1515,-13.458431,-22.078575,27.323343
1516,-14.881263,-28.21108,20.548964
1517,-14.19871,-29.116465,16.366308
1518,-8.375178,-22.617558,11.017154
1519,-4.721936,-15.131612,6.29103
1520,-5.122136,-9.803992,4.0031924
1521,-4.6286163,-7.1018977,2.7335007
1522,-6.209674,-7.533204,3.5048869
1523,-7.119844,-10.053145,1.387239
1524,-6.942775,-13.854742,-3.4492538
1525,-7.5990067,-16.700706,-9.500104
1526,-10.87837,-19.290339,-5.128417
1527,-8.732008,-20.095224,5.89083
1528,-6.094519,-15.28266,-4.191926
1529,-4.0609193,-10.117751,-9.495318
1530,-3.138486,-6.196513,-6.922735
1531,-2.7696922,-5.0344987,-4.3594236
1532,-1.3106686,-4.421338,-3.1426735
1533,1.1997014,-3.6020954,-3.693621
1534,7.4590263,-1.9420747,-12.5019
1535,6.0696936,-5.1496534,-12.554543
1536,-2.012663,-11.842677,-9.433105
1537,-2.0724835,-16.017855,-2.984448
1538,0.8787641,-16.636099,-1.911267
1539,2.672783,-17.079071,-1.2909278
1540,4.6731825,-15.850356,-4.5631127
1541,4.929514,-13.354343,-8.055737
1542,1.9328024,-12.412767,-6.759724
1543,0.7588239,-10.936995,-5.1786666
1544,-0.49142596,-8.510373,-2.6946175
1545,-0.4316054,-7.7030945,-2.333002
1546,-0.84137625,-6.1510496,-1.518545
1547,-1.3660027,-4.5074797,-0.3804588
1548,-1.5119648,-4.64417,1.5167505
1549,-1.6821543,-7.068398,3.3445678
1550,-1.0208379,-7.9163547,3.5838501
1551,-0.14895321,-7.940283,3.112165
1552,0.0738784,-7.7054873,2.0964117
1553,-0.07716853,-7.5978103,1.1093724
1554,-1.0689936,-7.8086777,1.4327025
1555,-4.6669016,-9.186047,5.133801
1556,-8.049456,-11.689238,5.311169
1557,-9.297313,-12.997214,7.7904325
1558,-7.998907,-14.544772,14.332708
1559,-3.5961134,-14.784354,9.7043915
1560,-3.3038898,-15.30898,1.7324036
1561,-2.4272194,-14.012968,2.0365913
1562,-3.3038898,-12.67867,1.8161523
1563,-2.5899315,-11.842677,1.9884356
1564,1.422533,-11.327622,0.9275179
1565,6.311668,-12.396018,0.81954175
1566,10.494322,-14.43231,0.06729814
1567,12.4274235,-15.6466675,0.9056834
1568,9.622138,-15.967605,3.519244
1569,7.286743,-15.6873455,4.19731
1570,5.45414,-15.55574,5.32074
1571,2.126621,-16.226328,7.5197444
1572,-0.24975087,-16.566708,7.0525455
1573,0.2222334,-17.553448,2.5154548
1574,0.18394823,-16.648064,-3.3460634
1575,0.9625129,-16.077974,-6.0436716
1576,1.3049856,-15.239589,-7.4210405
1577,-1.2317054,-14.4897375,-6.3885374
1578,-3.3876386,-15.399907,-5.7056856
1579,-5.977271,-16.873287,-5.111667
1580,-8.216953,-18.403797,-3.952345
1581,-10.202995,-20.315662,-3.99063
1582,-11.750554,-21.661924,-4.8625145
1583,-14.009378,-20.554945,-4.469793
1584,-14.699409,-16.719849,-0.1698904
1585,-14.6225395,-13.574483,0.63978094
1586,-12.380465,-9.7609215,-0.7112665
1587,-10.813764,-8.2348995,-5.3943195
1588,-7.143772,-7.288837,-6.0771713
1589,-1.4090735,-6.426523,-15.874583
1590,3.4920256,-1.6522441,-4.150949
1591,4.1629133,-2.2055843,-1.1829517
1592,4.3785663,-4.625027,-1.1542379
1593,7.926225,-5.556732,-0.6367899
1594,8.132307,-6.3137617,-1.4751751
1595,7.049555,-5.489733,-2.838486
1596,4.222734,-4.4811587,-2.3952155
1597,1.8846469,-2.129014,-3.1163523
1598,1.7721843,-0.5599205,-2.8432715
1599,2.0141585,0.93738824,-3.638586
1600,1.096511,2.3961127,-3.9882371
1601,1.0247263,4.137789,-3.406183
1602,0.907478,5.99432,-4.8912287
1603,1.4751751,5.6300125,-6.7381887
1604,0.526421,4.458726,-6.6424756
1605,-1.4330016,1.2631112,-2.9198418
1606,-3.301497,-3.6236308,6.425028
1607,-4.616652,-7.9043903,15.166308
1608,-10.277173,-17.754744,31.846077
1609,-17.022839,-30.256943,29.287552
1610,-16.754543,-37.273296,25.94358
1611,-7.8984084,-31.98157,9.512965
1612,-5.11735,-20.74667,5.5722857
1613,-5.241777,-11.66531,1.657927
1614,-4.4799623,-3.4704902,1.1763715
1615,-4.417749,-2.1625135,0.8003992
1616,-7.7739816,-2.7732813,-2.7352953
1617,-10.133305,-7.408478,-6.2925253
1618,-12.219846,-13.253546,-9.047562
1619,-14.716158,-19.237396,-7.8281193
1620,-14.70898,-25.609484,5.3039904
1621,-10.610075,-26.311478,-0.61764735
1622,-1.9767706,-13.926826,-12.746267
1623,-0.6113662,-7.492526,-9.490533
1624,-1.4521443,-5.211867,-6.5536423
1625,-0.6113662,-4.2056847,-3.8276188
1626,-0.7501499,-4.4285164,-3.7677984
1627,1.9423738,-3.5470605,-5.1810594
1628,10.285848,-1.4150555,-15.2063875
1629,10.046266,-3.4007993,-14.890236
1630,-0.58265233,-11.799606,-7.138388
1631,1.6235301,-16.259829,-2.9772696
1632,1.7578273,-16.293327,-1.1087742
1633,5.0108695,-14.199907,-2.7065816
1634,6.27099,-12.911073,-4.7189455
1635,2.986841,-10.903495,-5.883054
1636,2.2465613,-10.450952,-5.4999027
1637,1.966302,-9.413663,-5.375177
1638,1.0992029,-8.757133,-4.1847477
1639,0.29162526,-7.758428,-3.0442686
1640,-2.0150557,-5.8683977,-1.5999011
1641,-2.149353,-6.1701922,0.024227329
1642,-1.7611175,-7.9977107,3.2533414
1643,-0.99930257,-9.255438,5.8357954
1644,0.38524446,-9.581161,7.1102724
1645,0.8333005,-8.295019,5.955436
1646,0.83090764,-7.734201,5.2250276
1647,-0.18484555,-7.0731835,6.369993
1648,-2.14696,-8.069795,8.621639
1649,-3.802195,-9.576375,6.4178495
1650,-4.0106697,-11.833106,-1.6692929
1651,-4.386642,-13.660924,2.8103702
1652,-4.5855455,-14.642879,8.336594
1653,-4.985446,-15.186647,7.155736
1654,-5.9557357,-14.257335,2.9539394
1655,-7.3953176,-13.644174,0.7046863
1656,-3.478865,-12.532409,1.2340983
1657,1.314557,-12.760026,1.8305093
1658,6.326025,-13.723137,0.58713883
1659,9.538389,-14.43231,-0.22492532
1660,10.194621,-14.164015,0.1055833
1661,8.017152,-13.505091,2.117947
1662,5.1475596,-12.966107,4.3145585
1663,2.6943183,-13.301402,6.7148585
1664,0.55752766,-14.094323,7.903194
1665,-1.2340983,-13.842778,9.7812605
1666,-2.6425736,-14.211871,8.904291
1667,-1.8161523,-15.8025,4.1276193
1668,0.5769694,-16.511374,-2.8863423
1669,3.6646078,-16.569101,-8.146664
1670,3.7052858,-15.416657,-9.533903
1671,1.2475579,-14.746069,-8.261818
1672,-1.5526428,-14.698213,-4.8026943
1673,-3.5913277,-15.816856,-3.5162528
1674,-5.6180487,-18.13311,-3.4803605
1675,-8.595617,-22.837997,-3.2623146
1676,-8.988339,-24.205793,-2.7472596
1677,-11.175379,-23.918356,-4.6875396
1678,-15.403497,-21.07957,-1.4536397
1679,-17.250456,-17.294724,2.1394825
1680,-14.162818,-10.170692,-0.80937225
1681,-11.405389,-7.731808,-3.1498518
1682,-4.5134616,-7.015756,-10.554143
1683,-0.654437,-4.8861437,-5.832804
1684,-0.78873414,-2.033002,-1.8610178
1685,1.9184456,-2.9578278,-0.75194454
1686,4.7377887,-3.6690943,-1.1829517
1687,5.6407804,-4.371089,0.50099725
1688,7.9070826,-5.19751,-2.632404
1689,6.220741,-5.449055,-4.615755
1690,4.011866,-4.0621157,-4.3522453
1691,1.9782661,-1.8750757,-3.6720855
1692,1.3674982,-0.05922236,-4.016951
1693,1.5158532,0.5901299,-4.232604
1694,1.3722838,1.6079768,-5.185845
1695,1.829612,2.676372,-4.8505507
1696,2.1795623,3.9747775,-5.5453663
1697,0.99601245,4.5544386,-7.313064
1698,-0.2760719,4.7772703,-6.795616
1699,-1.1001002,2.5998018,-3.0514472
1700,-1.8017955,-1.1180464,3.03051
1701,-4.4081774,-7.6480594,14.100306
1702,-8.178668,-12.503695,22.412672
1703,-13.546966,-20.468803,26.036901
1704,-13.896915,-24.981966,22.374388
1705,-14.716158,-30.089146,15.856039
1706,-9.323633,-24.50041,9.1414795
1707,-6.0777693,-15.711273,4.741079
1708,-4.935197,-8.706883,3.1265218
1709,-4.286144,-5.901897,4.6956153
1710,-5.011767,-5.7747784,-2.548356
1711,-7.9558363,-10.759925,-7.706085
1712,-9.49143,-12.309876,-8.956335
1713,-15.065809,-18.396618,-11.076376
1714,-17.288742,-24.656242,1.3274183
1715,-12.473784,-28.611279,11.654542
1716,-2.9949167,-15.821643,-8.113164
1717,-1.3971093,-7.75125,-9.191131
1718,-0.6233303,-5.1209397,-6.1322064
1719,0.7612167,-3.6978083,-4.5678983
1720,1.5828521,-3.3385859,-3.8635113
1721,7.217052,-1.6426728,-9.737292
1722,11.327922,-3.0176485,-15.900905
1723,-0.07238288,-11.902498,-6.9945197
1724,0.14327025,-14.528023,-4.8529434
1725,1.6860427,-15.613168,-2.2633111
1726,6.4555364,-14.376976,-3.5569308
1727,7.3011003,-12.740883,-5.662615
1728,5.358128,-11.456835,-6.1393847
1729,3.8324046,-10.486844,-5.145167
1730,2.5196424,-9.344272,-4.1054854
1731,2.1747768,-8.544171,-3.7390845
1732,0.907478,-8.1679,-3.0179477
1733,-0.30000013,-7.075577,-2.6012974
1734,-1.5311074,-6.3544397,-1.4727824
1735,-2.376671,-7.245766,0.6517451
1736,-1.8475581,-8.378768,2.1969104
1737,-0.4459623,-8.776276,2.8845477
1738,-0.33110684,-8.295019,2.7071798
1739,-2.4296124,-8.474481,2.1658037
1740,-5.4574304,-8.62792,5.6392846
1741,-9.282955,-9.020642,13.747963
1742,-9.232706,-8.735598,8.413164
1743,-10.464112,-11.263016,4.9734817
1744,-8.763115,-14.03211,7.0839515
1745,-4.8323054,-15.004792,6.595217
1746,-3.845266,-15.337694,3.164807
1747,-3.411567,-13.713566,1.4808581
1748,-2.527718,-12.225828,0.19920248
1749,-1.6103697,-11.821142,2.9706893
1750,2.7568307,-11.890533,3.3397822
1751,6.663712,-12.975679,0.9176475
1752,9.380164,-14.614164,-0.6655038
1753,10.546964,-15.15554,-0.41665024
1754,10.314561,-14.324333,1.0806586
1755,7.219445,-12.990036,3.6774693
1756,5.341378,-11.38505,4.9782677
1757,2.018944,-10.812568,6.9329047
1758,-3.0332017,-10.8867445,10.933405
1759,-5.1699924,-12.4223385,10.214661
1760,-7.0576305,-13.34208,5.109873
1761,-2.96381,-15.347265,-0.37567315
1762,4.1126637,-16.037296,-6.2159553
1763,4.8215375,-17.213367,-7.5382886
1764,3.5377884,-17.507984,-6.311967
1765,0.1576272,-17.809778,-4.939085
1766,-1.9408783,-18.818354,-5.1643095
1767,-3.667898,-20.447268,-5.0303116
1768,-6.595217,-23.79393,-5.8686967
1769,-8.085348,-26.40719,-4.7452664
1770,-10.04477,-25.55445,-4.3235316
1771,-13.537395,-21.628126,-3.4660037
1772,-16.644474,-16.027426,3.370889
1773,-14.809479,-11.15504,-0.030807592
1774,-12.869199,-7.899605,-2.3401806
1775,-8.228917,-7.1473613,-6.3143597
1776,-1.1120644,-6.105287,-15.795621
1777,-1.579263,-2.1194427,-3.0873394
1778,-0.21595225,-0.93589276,-2.0958135
1779,2.2561326,-2.8187451,-1.8203398
1780,3.7821553,-3.5063825,-1.2092727
1781,6.6421766,-3.441477,-1.0010972
1782,5.79422,-3.8201413,-3.3990045
1783,4.618148,-3.254837,-4.436293
1784,3.2982068,-1.9229321,-4.158128
1785,2.399702,-0.85214394,-4.215854
1786,1.7195421,0.25214368,-4.5391846
1787,1.5541383,1.7446668,-4.88405
1788,1.5062819,3.0550363,-4.738088
1789,1.8248264,4.5185466,-5.8878393
1790,3.0155547,4.6002016,-7.6869426
1791,2.0979073,4.1928234,-7.9241314
1792,1.4033905,1.2367902,-3.8084764
1793,-0.46271208,-2.7996025,4.920541
1794,-3.2153554,-10.961222,22.14677
1795,-10.224531,-18.415762,34.327732
1796,-19.087845,-28.733313,31.048368
1797,-21.289242,-36.123547,23.186451
1798,-11.726327,-29.5717,9.802796
1799,-6.741479,-18.583557,6.288637
1800,-7.0959153,-10.525129,2.393421
1801,-5.0599227,-5.2956157,1.6938193
1802,-3.2297122,-1.9253249,-1.4416757
1803,-1.2843475,-1.4461622,-8.494222
1804,-1.6319051,-2.9578278,-14.204991
1805,-6.774978,-7.899605,-10.983056
1806,-17.362919,-18.073288,-1.3866407
1807,-24.997519,-33.282368,30.552456
1808,-16.663616,-35.416767,4.853542
1809,2.23699,-17.203796,-18.56232
1810,0.20787647,-9.511769,-9.41157
1811,-1.4641083,-6.5222363,-6.146563
1812,-0.053240303,-4.8287163,-3.4301112
1813,0.45224348,-4.328018,-3.6290147
1814,2.6632116,-4.272983,-5.5836515
1815,8.743074,-4.665705,-13.146168
1816,5.0970116,-10.072288,-14.334503
1817,-0.7645068,-14.95903,-6.343074
1818,1.6357933,-15.038292,-3.676871
1819,2.8980074,-14.410476,-2.1532412
1820,3.9185462,-12.412767,-2.4358935
1821,3.9376888,-10.455738,-4.0121655
1822,2.7927232,-9.480662,-3.9858444
1823,1.9519451,-8.519944,-3.595216
1824,1.9208384,-7.8684983,-3.5090744
1825,0.7372885,-7.430013,-2.5893333
1826,-0.6879365,-7.0085773,-1.7267207
1827,-1.34686,-6.311369,-1.7386848
1828,-1.7659031,-6.0574307,-0.48364928
1829,-1.6031911,-7.205088,1.3489537
1830,-0.95383894,-8.510373,2.3455644
1831,-0.098703936,-8.704491,2.8773692
1832,-0.19441684,-8.148758,2.3288147
1833,-0.59940207,-7.6337023,1.265205
1834,-2.0605195,-7.832606,3.0690942
1835,-5.4311094,-8.728418,10.902298
1836,-7.5774713,-9.578768,10.0061865
1837,-7.8146596,-12.386446,8.269595
1838,-6.1881385,-15.105291,10.403993
1839,-4.4392843,-15.926927,5.3973107
1840,-4.2741795,-15.316158,2.3790638
1841,-4.6118665,-14.393725,1.1739786
1842,-5.6324053,-13.17219,0.62781686
1843,-3.2488549,-12.166008,1.5933207
1844,2.1505494,-11.998211,2.961118
1845,6.2350974,-12.877573,1.6674982
1846,8.790932,-14.506487,0.06729814
1847,9.993624,-14.777175,0.8602197
1848,8.666505,-14.456238,1.8664017
1849,6.2662044,-14.5926285,2.824727
1850,5.032405,-14.710176,4.8559346
1851,3.6167514,-14.805889,5.811867
1852,1.314557,-14.98565,7.8960156
1853,-0.13220344,-15.663417,4.971089
1854,-0.18723837,-15.340087,2.0581267
1855,-2.420041,-13.356736,-3.0011978
1856,-1.9217356,-13.282259,-4.31396
1857,-0.1369891,-13.842778,-5.9524455
1858,-1.061815,-14.884852,-5.5310097
1859,-3.3589249,-16.470695,-3.9116669
1860,-6.1184473,-19.424335,-3.566502
1861,-8.054241,-21.815065,-4.167998
1862,-9.343075,-23.374588,-3.6625142
1863,-10.07827,-23.204397,-3.1689944
1864,-10.840085,-21.0365,-2.349752
1865,-11.398211,-14.954245,0.79800636
1866,-11.455638,-12.513266,0.08883354
1867,-10.21496,-10.019646,-2.091028
1868,-8.075776,-8.002795,-2.819044
1869,-1.8475581,-6.9822564,-9.02124
1870,1.041476,-4.833502,-6.829116
1871,1.4967105,-1.6091732,-1.8658035
1872,3.9305103,-2.521736,1.2293127
1873,3.0323045,-3.5614173,0.39571303
1874,6.814759,-5.1592245,-1.5951154
1875,6.7525454,-5.8010993,-2.7999015
1876,5.276772,-4.8885365,-3.7821553
1877,3.0323045,-3.3816566,-3.7917266
1878,1.0127622,-1.841277,-4.1294136
1879,0.9768698,-1.2496517,-4.2038903
1880,0.9290134,0.8030911,-5.1762733
1881,0.55034924,1.8738792,-5.3536415
1882,0.27008986,3.3209388,-4.9728837
1883,0.9098708,4.4371905,-5.8064833
1884,0.49052864,4.8155556,-6.908378
1885,-1.576571,3.7905302,-5.957231
1886,-1.2484552,1.6103697,-2.795116
1887,-1.4210376,-2.4188447,3.816253
1888,-1.591227,-5.4442697,9.148658
1889,-7.0576305,-14.082359,23.871397
1890,-13.753047,-21.38645,29.620752
1891,-19.720148,-31.085756,23.435604
1892,-20.762222,-35.63242,17.118553
1893,-11.194522,-24.086153,11.481959
1894,-7.1509504,-14.947065,6.2790656
1895,-4.0417767,-8.476873,2.771786
1896,-0.85812604,-3.4920256,1.1787642
1897,-2.9973094,-3.0008986,0.39332023
1898,-7.2589264,-6.1582284,1.5047864
1899,-7.852945,-12.386446,-0.77587277
1900,-9.311669,-18.37987,-9.732507
1901,-9.316455,-20.902502,-10.664512
1902,-9.882058,-24.749563,0.33080772
1903,-7.1389866,-22.72045,1.509572
1904,-4.0441694,-15.016757,-5.906982
1905,-3.5985062,-6.4719872,-5.9691954
1906,-2.7314072,-4.4859443,-4.706981
1907,-1.4473586,-3.8057845,-3.377469
1908,-1.3540385,-4.05733,-3.4612179
1909,0.9457632,-3.3003006,-4.79073
1910,7.1285176,-2.1481566,-12.139986
1911,3.3699915,-6.409774,-9.124132
1912,-1.4976078,-12.539587,-6.012266
1913,-0.9562318,-15.047863,-3.923631
1914,1.2547364,-16.113867,-3.4396825
1915,3.1710882,-15.780965,-3.2407792
1916,5.2145586,-13.23201,-5.183452
1917,4.7832522,-11.9407835,-5.643472
1918,3.0490541,-10.700105,-5.3273206
1919,1.8224336,-9.7609215,-4.4024944
1920,1.3193426,-9.162118,-3.5808592
1921,0.030807592,-8.086544,-2.6563323
1922,-0.85094756,-6.426523,-2.9341989
1923,-1.3540385,-5.8971114,-0.4019942
1924,-1.6486548,-7.4973116,2.2160528
1925,-0.25214368,-8.814859,6.4968123
1926,0.9170493,-8.64467,7.5843506
1927,1.6621144,-8.05783,7.0669026
1928,1.355235,-7.2409806,5.457131
1929,0.2844468,-7.125826,5.9578295
1930,-6.1905313,-9.392128,8.188239
1931,-6.7175503,-10.065109,1.7587247
1932,-6.8515487,-10.731212,1.7611175
1933,-7.2397842,-11.53849,7.8813596
1934,-5.5340004,-13.794922,7.859824
1935,-4.985446,-15.541383,3.9984066
1936,-4.0130625,-15.299409,3.4761732
1937,-3.670291,-13.157832,1.9238294
1938,-0.7477571,-12.002996,1.5335002
1939,1.8559331,-11.562418,1.3154542
1940,6.4627147,-12.32184,-0.33738798
1941,8.822038,-12.594921,-1.1877373
1942,10.233205,-12.7648115,-1.750948
1943,9.856934,-12.815061,-0.49322057
1944,7.066304,-13.4763775,2.134697
1945,5.53071,-13.965111,3.6894333
1946,3.7941194,-14.7508545,4.944768
1947,1.925624,-15.297016,6.38435
1948,-1.1694921,-16.418053,6.1399827
1949,-1.5598212,-16.616957,2.3288147
1950,-2.0318055,-16.178473,-2.5292134
1951,-0.9275179,-15.191433,-4.3761735
1952,-0.06520442,-14.003396,-7.0639114
1953,-1.2675978,-13.902898,-6.695118
1954,-2.39372,-14.451452,-5.7583275
1955,-6.207281,-16.964214,-3.1283164
1956,-8.257631,-18.614664,-1.8155541
1957,-9.862617,-20.131117,-1.9232312
1958,-11.72154,-23.0704,-2.8791637
1959,-13.623835,-22.224836,-4.4315076
1960,-14.716158,-19.9035,-2.536392
1961,-14.026128,-15.067006,0.910469
1962,-12.088241,-11.327622,0.939482
1963,-9.556036,-8.740383,-0.73519474
1964,-6.873084,-7.288837,-4.476971
1965,2.035694,-6.582057,-18.929022
1966,4.5628138,-3.6379876,-8.745767
1967,3.525824,-2.2582264,-0.72323066
1968,2.1505494,-3.6044881,2.0509481
1969,6.3858457,-4.3328037,-0.69930243
1970,7.329814,-6.256334,-1.3555341
1971,5.6482577,-5.1759744,-3.758227
1972,3.403491,-3.362514,-3.03709
1973,1.7434704,-1.6043876,-3.2216365
1974,1.2906287,-0.33708888,-3.4396825
1975,2.2585254,0.5347959,-4.4458647
1976,2.088336,1.4979069,-5.0997033
1977,2.5292134,3.0215368,-5.118846
1978,2.5746772,3.6131623,-5.0327044
1979,3.2886357,4.118646,-5.602794
1980,1.3698909,3.8766718,-7.018448
1981,-0.23509483,1.701596,-4.963312
1982,-0.9586246,-0.066400826,-0.90029955
1983,-1.7371893,-3.9373896,7.225128
1984,-6.8706913,-10.041182,18.277874
1985,-14.447864,-18.787247,28.612177
1986,-19.993229,-31.008888,25.047768
1987,-19.202702,-35.809486,19.008583
1988,-10.564611,-28.515268,10.176375
1989,-7.0002027,-18.583557,5.9961143
1990,-5.756832,-11.2343025,1.8807586
1991,-4.417749,-6.308976,0.4651049
1992,-3.0906296,-1.1730813,-0.72323066
1993,-4.4799623,-1.2855439,1.1859428
1994,-6.195317,-4.4668016,0.8219346
1995,-8.025527,-9.823135,-2.457429
1996,-10.212567,-15.732809,-3.5114672
1997,-11.487044,-18.76571,-4.7548375
1998,-10.049556,-24.639492,2.4005992
1999,-7.392925,-25.075285,2.0700908
2000,-2.4822545,-16.44916,-7.8424764
